Time,header.seq,header.stamp.secs,header.stamp.nsecs,header.frame_id,imu.header.seq,imu.header.stamp.secs,imu.header.stamp.nsecs,imu.header.frame_id,imu.orientation.x,imu.orientation.y,imu.orientation.z,imu.orientation.w,imu.orientation_covariance,imu.angular_velocity.x,imu.angular_velocity.y,imu.angular_velocity.z,imu.angular_velocity_covariance,imu.linear_acceleration.x,imu.linear_acceleration.y,imu.linear_acceleration.z,imu.linear_acceleration_covariance,mag_field.header.seq,mag_field.header.stamp.secs,mag_field.header.stamp.nsecs,mag_field.header.frame_id,mag_field.magnetic_field.x,mag_field.magnetic_field.y,mag_field.magnetic_field.z,mag_field.magnetic_field_covariance,raw_string
1711562703.9289813,1843,1711562703,926748275,imu1_frame,0,0,0,,-0.04027602554599277,-0.009034343929728916,-0.7683002210916401,0.6387573816923876,"(0.0, 0.0, 0.0, 0.0, 0.0, 0.0, 0.0, 0.0, 0.0)",3.2690016889853794e-05,-2.6197392072434882e-05,1.4660765716752367e-06,"(0.0, 0.0, 0.0, 0.0, 0.0, 0.0, 0.0, 0.0, 0.0)",-0.628,0.577,-9.536,"(0.0, 0.0, 0.0, 0.0, 0.0, 0.0, 0.0, 0.0, 0.0)",0,0,0,,3.704e-05,-8.599999999999999e-06,-2.8460000000000002e-05,"(0.0, 0.0, 0.0, 0.0, 0.0, 0.0, 0.0, 0.0, 0.0)",
1711562703.953011,1844,1711562703,950534105,imu1_frame,0,0,0,,-0.04025938191656328,-0.00905410665034349,-0.7683055584994379,0.6387517311908651,"(0.0, 0.0, 0.0, 0.0, 0.0, 0.0, 0.0, 0.0, 0.0)",-9.107128036906413e-05,-2.7576202181510406e-05,-1.2915436464758039e-05,"(0.0, 0.0, 0.0, 0.0, 0.0, 0.0, 0.0, 0.0, 0.0)",-0.748,0.348,-9.606,"(0.0, 0.0, 0.0, 0.0, 0.0, 0.0, 0.0, 0.0, 0.0)",0,0,0,,3.6830000000000005e-05,-7.77e-06,-2.741e-05,"(0.0, 0.0, 0.0, 0.0, 0.0, 0.0, 0.0, 0.0, 0.0)",
1711562703.9789784,1845,1711562703,974715471,imu1_frame,0,0,0,,-0.04026263163046355,-0.009023176940820827,-0.768300503433348,0.638758044329892,"(0.0, 0.0, 0.0, 0.0, 0.0, 0.0, 0.0, 0.0, 0.0)",9.300859583877783e-05,-8.258898020437167e-05,1.7418385934903408e-05,"(0.0, 0.0, 0.0, 0.0, 0.0, 0.0, 0.0, 0.0, 0.0)",-0.687,0.243,-9.556,"(0.0, 0.0, 0.0, 0.0, 0.0, 0.0, 0.0, 0.0, 0.0)",0,0,0,,3.704e-05,-8.24e-06,-2.7789999999999997e-05,"(0.0, 0.0, 0.0, 0.0, 0.0, 0.0, 0.0, 0.0, 0.0)",
1711562704.0030458,1846,1711562704,554561,imu1_frame,0,0,0,,-0.040271612972313464,-0.008984839751193843,-0.7683066738311949,0.6387505967039873,"(0.0, 0.0, 0.0, 0.0, 0.0, 0.0, 0.0, 0.0, 0.0)",-3.391174736624983e-05,0.00014261085318045667,-1.0524335389525806e-05,"(0.0, 0.0, 0.0, 0.0, 0.0, 0.0, 0.0, 0.0, 0.0)",-0.644,0.604,-9.533,"(0.0, 0.0, 0.0, 0.0, 0.0, 0.0, 0.0, 0.0, 0.0)",0,0,0,,3.663e-05,-6.7e-06,-2.863e-05,"(0.0, 0.0, 0.0, 0.0, 0.0, 0.0, 0.0, 0.0, 0.0)",
1711562704.0280015,1847,1711562704,24689912,imu1_frame,0,0,0,,-0.04023584376261512,-0.009000842954762221,-0.7683010674146502,0.6387593690211699,"(0.0, 0.0, 0.0, 0.0, 0.0, 0.0, 0.0, 0.0, 0.0)",-5.038765550507629e-05,0.00010920525129728521,1.1484266478122687e-05,"(0.0, 0.0, 0.0, 0.0, 0.0, 0.0, 0.0, 0.0, 0.0)",-0.76,0.322,-9.675,"(0.0, 0.0, 0.0, 0.0, 0.0, 0.0, 0.0, 0.0, 0.0)",0,0,0,,3.696e-05,-6.7e-06,-2.8749999999999997e-05,"(0.0, 0.0, 0.0, 0.0, 0.0, 0.0, 0.0, 0.0, 0.0)",
1711562704.0524554,1848,1711562704,49717187,imu1_frame,0,0,0,,-0.04026030760996073,-0.008998951907244342,-0.7682953684688419,0.6387647088600379,"(0.0, 0.0, 0.0, 0.0, 0.0, 0.0, 0.0, 0.0, 0.0)",7.998843961890013e-05,-5.701990666265475e-05,2.5830872929516076e-06,"(0.0, 0.0, 0.0, 0.0, 0.0, 0.0, 0.0, 0.0, 0.0)",-0.708,0.293,-9.532,"(0.0, 0.0, 0.0, 0.0, 0.0, 0.0, 0.0, 0.0, 0.0)",0,0,0,,3.696e-05,-6.5900000000000004e-06,-2.8749999999999997e-05,"(0.0, 0.0, 0.0, 0.0, 0.0, 0.0, 0.0, 0.0, 0.0)",
1711562704.0744276,1849,1711562704,74038743,imu1_frame,0,0,0,,-0.04028930157941217,-0.008977716896141883,-0.7682955413941137,0.6387629715720076,"(0.0, 0.0, 0.0, 0.0, 0.0, 0.0, 0.0, 0.0, 0.0)",-4.328416544945937e-05,-2.4661502330679877e-05,8.237954069413234e-06,"(0.0, 0.0, 0.0, 0.0, 0.0, 0.0, 0.0, 0.0, 0.0)",-0.669,0.638,-9.578,"(0.0, 0.0, 0.0, 0.0, 0.0, 0.0, 0.0, 0.0, 0.0)",0,0,0,,3.671e-05,-8e-06,-2.9010000000000002e-05,"(0.0, 0.0, 0.0, 0.0, 0.0, 0.0, 0.0, 0.0, 0.0)",
1711562704.1010146,1850,1711562704,97317457,imu1_frame,0,0,0,,-0.04026700452088355,-0.009004535464318335,-0.7682952275446031,0.6387643775447824,"(0.0, 0.0, 0.0, 0.0, 0.0, 0.0, 0.0, 0.0, 0.0)",-6.356489135763349e-05,8.361872446304833e-05,1.3264502315156904e-05,"(0.0, 0.0, 0.0, 0.0, 0.0, 0.0, 0.0, 0.0, 0.0)",-0.825,0.242,-9.67,"(0.0, 0.0, 0.0, 0.0, 0.0, 0.0, 0.0, 0.0, 0.0)",0,0,0,,3.67e-05,-8.59e-06,-2.8210000000000003e-05,"(0.0, 0.0, 0.0, 0.0, 0.0, 0.0, 0.0, 0.0, 0.0)",
1711562704.1242921,1851,1711562704,122298717,imu1_frame,0,0,0,,-0.04028252638189087,-0.008972484865851943,-0.7682901078328049,0.6387700077413476,"(0.0, 0.0, 0.0, 0.0, 0.0, 0.0, 0.0, 0.0, 0.0)",0.0001287529389196217,2.1066124071571557e-05,9.354964790689607e-06,"(0.0, 0.0, 0.0, 0.0, 0.0, 0.0, 0.0, 0.0, 0.0)",-0.7,0.316,-9.545,"(0.0, 0.0, 0.0, 0.0, 0.0, 0.0, 0.0, 0.0, 0.0)",0,0,0,,3.726e-05,-8.599999999999999e-06,-2.858e-05,"(0.0, 0.0, 0.0, 0.0, 0.0, 0.0, 0.0, 0.0, 0.0)",
1711562704.1471958,1852,1711562704,145519733,imu1_frame,0,0,0,,-0.04033385603854685,-0.008992577399562815,-0.7682894196636229,0.6387673138488758,"(0.0, 0.0, 0.0, 0.0, 0.0, 0.0, 0.0, 0.0, 0.0)",-3.530801076784529e-05,3.4836771869806816e-05,1.6196655458507378e-05,"(0.0, 0.0, 0.0, 0.0, 0.0, 0.0, 0.0, 0.0, 0.0)",-0.673,0.588,-9.597,"(0.0, 0.0, 0.0, 0.0, 0.0, 0.0, 0.0, 0.0, 0.0)",0,0,0,,3.647e-05,-8.939999999999999e-06,-2.808e-05,"(0.0, 0.0, 0.0, 0.0, 0.0, 0.0, 0.0, 0.0, 0.0)",
1711562704.1725504,1853,1711562704,170368194,imu1_frame,0,0,0,,-0.04030486198734562,-0.00901381213949542,-0.7682892464118244,0.6387690530534851,"(0.0, 0.0, 0.0, 0.0, 0.0, 0.0, 0.0, 0.0, 0.0)",6.335545184739416e-06,6.761405522226032e-05,1.3404128655316451e-05,"(0.0, 0.0, 0.0, 0.0, 0.0, 0.0, 0.0, 0.0, 0.0)",-0.815,0.272,-9.7,"(0.0, 0.0, 0.0, 0.0, 0.0, 0.0, 0.0, 0.0, 0.0)",0,0,0,,3.698e-05,-6e-06,-2.8089999999999997e-05,"(0.0, 0.0, 0.0, 0.0, 0.0, 0.0, 0.0, 0.0, 0.0)",
1711562704.1975503,1854,1711562704,194195747,imu1_frame,0,0,0,,-0.040301494392655464,-0.008976947512148855,-0.7682899046893114,0.6387689929196405,"(0.0, 0.0, 0.0, 0.0, 0.0, 0.0, 0.0, 0.0, 0.0)",0.00010135126966331071,4.9567350756638966e-06,2.303834612632515e-06,"(0.0, 0.0, 0.0, 0.0, 0.0, 0.0, 0.0, 0.0, 0.0)",-0.686,0.346,-9.557,"(0.0, 0.0, 0.0, 0.0, 0.0, 0.0, 0.0, 0.0, 0.0)",0,0,0,,3.697e-05,-6.2300000000000005e-06,-2.929e-05,"(0.0, 0.0, 0.0, 0.0, 0.0, 0.0, 0.0, 0.0, 0.0)",
1711562704.2241943,1855,1711562704,220371007,imu1_frame,0,0,0,,-0.04030037186039297,-0.008964659295380173,-0.7682901236862008,0.6387689729142093,"(0.0, 0.0, 0.0, 0.0, 0.0, 0.0, 0.0, 0.0, 0.0)",-9.909979492823803e-05,3.47495054072071e-05,2.338741197672402e-06,"(0.0, 0.0, 0.0, 0.0, 0.0, 0.0, 0.0, 0.0, 0.0)",-0.668,0.625,-9.586,"(0.0, 0.0, 0.0, 0.0, 0.0, 0.0, 0.0, 0.0, 0.0)",0,0,0,,3.731e-05,-5.88e-06,-2.847e-05,"(0.0, 0.0, 0.0, 0.0, 0.0, 0.0, 0.0, 0.0, 0.0)",
1711562704.247555,1856,1711562704,245463848,imu1_frame,0,0,0,,-0.040246756906350614,-0.008988487230831102,-0.7682845014658968,0.6387787805360482,"(0.0, 0.0, 0.0, 0.0, 0.0, 0.0, 0.0, 0.0, 0.0)",3.0019663134302466e-05,3.8135444156076095e-05,-1.2112585008840646e-05,"(0.0, 0.0, 0.0, 0.0, 0.0, 0.0, 0.0, 0.0, 0.0)",-0.783,0.18,-9.689,"(0.0, 0.0, 0.0, 0.0, 0.0, 0.0, 0.0, 0.0, 0.0)",0,0,0,,3.696e-05,-6.7e-06,-2.7950000000000002e-05,"(0.0, 0.0, 0.0, 0.0, 0.0, 0.0, 0.0, 0.0, 0.0)",
1711562704.273334,1857,1711562704,271099090,imu1_frame,0,0,0,,-0.04028794421173407,-0.008966483428155276,-0.7682790373525732,0.6387830652817342,"(0.0, 0.0, 0.0, 0.0, 0.0, 0.0, 0.0, 0.0, 0.0)",0.00012114330338092642,-4.752531553180559e-05,1.977458042509575e-05,"(0.0, 0.0, 0.0, 0.0, 0.0, 0.0, 0.0, 0.0, 0.0)",-0.735,0.415,-9.552,"(0.0, 0.0, 0.0, 0.0, 0.0, 0.0, 0.0, 0.0, 0.0)",0,0,0,,3.714e-05,-9.07e-06,-2.8310000000000002e-05,"(0.0, 0.0, 0.0, 0.0, 0.0, 0.0, 0.0, 0.0, 0.0)",
1711562704.2980812,1858,1711562704,296133518,imu1_frame,0,0,0,,-0.04029247440578368,-0.008947139068507798,-0.7682849086475326,0.6387759891802451,"(0.0, 0.0, 0.0, 0.0, 0.0, 0.0, 0.0, 0.0, 0.0)",-0.000114196892957989,-6.370451769779302e-06,9.616764178488754e-06,"(0.0, 0.0, 0.0, 0.0, 0.0, 0.0, 0.0, 0.0, 0.0)",-0.626,0.585,-9.624,"(0.0, 0.0, 0.0, 0.0, 0.0, 0.0, 0.0, 0.0, 0.0)",0,0,0,,3.674e-05,-6.9400000000000005e-06,-2.822e-05,"(0.0, 0.0, 0.0, 0.0, 0.0, 0.0, 0.0, 0.0, 0.0)",
1711562704.3221018,1859,1711562704,319440364,imu1_frame,0,0,0,,-0.040264602506952234,-0.008980661813103329,-0.7682845175235912,0.6387777466630303,"(0.0, 0.0, 0.0, 0.0, 0.0, 0.0, 0.0, 0.0, 0.0)",6.515314097694833e-05,4.532620067429274e-05,2.3422318561763906e-05,"(0.0, 0.0, 0.0, 0.0, 0.0, 0.0, 0.0, 0.0, 0.0)",-0.73,0.189,-9.764,"(0.0, 0.0, 0.0, 0.0, 0.0, 0.0, 0.0, 0.0, 0.0)",0,0,0,,3.697e-05,-6.2300000000000005e-06,-2.7689999999999997e-05,"(0.0, 0.0, 0.0, 0.0, 0.0, 0.0, 0.0, 0.0, 0.0)",
1711562704.3456874,1860,1711562704,343739509,imu1_frame,0,0,0,,-0.040260112804749705,-0.008931508883939565,-0.7682853922250269,0.6387776667664904,"(0.0, 0.0, 0.0, 0.0, 0.0, 0.0, 0.0, 0.0, 0.0)",0.0001188394687682939,1.1606439525762293e-05,3.331833542057175e-05,"(0.0, 0.0, 0.0, 0.0, 0.0, 0.0, 0.0, 0.0, 0.0)",-0.732,0.446,-9.612,"(0.0, 0.0, 0.0, 0.0, 0.0, 0.0, 0.0, 0.0, 0.0)",0,0,0,,3.7080000000000004e-05,-6.35e-06,-2.888e-05,"(0.0, 0.0, 0.0, 0.0, 0.0, 0.0, 0.0, 0.0, 0.0)",
1711562704.3721116,1861,1711562704,368368387,imu1_frame,0,0,0,,-0.040272461929315474,-0.008930036571524455,-0.7682909042045873,0.6387702793442103,"(0.0, 0.0, 0.0, 0.0, 0.0, 0.0, 0.0, 0.0, 0.0)",-0.00014163346879933985,9.320058205649719e-06,-1.937315469713706e-05,"(0.0, 0.0, 0.0, 0.0, 0.0, 0.0, 0.0, 0.0, 0.0)",-0.653,0.626,-9.626,"(0.0, 0.0, 0.0, 0.0, 0.0, 0.0, 0.0, 0.0, 0.0)",0,0,0,,3.692e-05,-8.599999999999999e-06,-3.02e-05,"(0.0, 0.0, 0.0, 0.0, 0.0, 0.0, 0.0, 0.0, 0.0)",
1711562704.3979828,1862,1711562704,393720388,imu1_frame,0,0,0,,-0.040270098578768884,-0.00897430868879687,-0.7682790214517745,0.6387840997873366,"(0.0, 0.0, 0.0, 0.0, 0.0, 0.0, 0.0, 0.0, 0.0)",5.201081170943102e-05,-0.0001713389726682833,-1.4817845349431857e-05,"(0.0, 0.0, 0.0, 0.0, 0.0, 0.0, 0.0, 0.0, 0.0)",-0.719,0.154,-9.723,"(0.0, 0.0, 0.0, 0.0, 0.0, 0.0, 0.0, 0.0, 0.0)",0,0,0,,3.65e-05,-7.52e-06,-2.7700000000000002e-05,"(0.0, 0.0, 0.0, 0.0, 0.0, 0.0, 0.0, 0.0, 0.0)",
1711562704.4238243,1863,1711562704,420096397,imu1_frame,0,0,0,,-0.040291196031182475,-0.00893555404779102,-0.7682739782475598,0.6387893782334704,"(0.0, 0.0, 0.0, 0.0, 0.0, 0.0, 0.0, 0.0, 0.0)",0.00010325367854798453,-6.174974893555938e-05,5.544911033585985e-05,"(0.0, 0.0, 0.0, 0.0, 0.0, 0.0, 0.0, 0.0, 0.0)",-0.692,0.49,-9.594,"(0.0, 0.0, 0.0, 0.0, 0.0, 0.0, 0.0, 0.0, 0.0)",0,0,0,,3.696e-05,-6.9400000000000005e-06,-2.9010000000000002e-05,"(0.0, 0.0, 0.0, 0.0, 0.0, 0.0, 0.0, 0.0, 0.0)",
1711562704.447603,1864,1711562704,445130825,imu1_frame,0,0,0,,-0.040277802623963486,-0.008924386441703859,-0.7682742588837099,0.6387900414683296,"(0.0, 0.0, 0.0, 0.0, 0.0, 0.0, 0.0, 0.0, 0.0)",-0.00019929914728523252,3.6198128686362396e-05,-4.485496177625427e-06,"(0.0, 0.0, 0.0, 0.0, 0.0, 0.0, 0.0, 0.0, 0.0)",-0.693,0.491,-9.626,"(0.0, 0.0, 0.0, 0.0, 0.0, 0.0, 0.0, 0.0, 0.0)",0,0,0,,3.67e-05,-8.47e-06,-2.727e-05,"(0.0, 0.0, 0.0, 0.0, 0.0, 0.0, 0.0, 0.0, 0.0)",
1711562704.4729958,1865,1711562704,469325780,imu1_frame,0,0,0,,-0.04029336226026792,-0.00896048218162888,-0.7682679665920747,0.6387961225816218,"(0.0, 0.0, 0.0, 0.0, 0.0, 0.0, 0.0, 0.0, 0.0)",8.94481241647094e-05,-2.570869988187647e-05,1.2618730491919003e-05,"(0.0, 0.0, 0.0, 0.0, 0.0, 0.0, 0.0, 0.0, 0.0)",-0.689,0.23,-9.649,"(0.0, 0.0, 0.0, 0.0, 0.0, 0.0, 0.0, 0.0, 0.0)",0,0,0,,3.664e-05,-5.99e-06,-2.8239999999999997e-05,"(0.0, 0.0, 0.0, 0.0, 0.0, 0.0, 0.0, 0.0, 0.0)",
1711562704.4973338,1866,1711562704,494616270,imu1_frame,0,0,0,,-0.04032897564059585,-0.008945184224534249,-0.768262423441371,0.6388007562072548,"(0.0, 0.0, 0.0, 0.0, 0.0, 0.0, 0.0, 0.0, 0.0)",6.171484235051948e-05,-0.00015282102930462349,1.5446163880149818e-05,"(0.0, 0.0, 0.0, 0.0, 0.0, 0.0, 0.0, 0.0, 0.0)",-0.661,0.564,-9.568,"(0.0, 0.0, 0.0, 0.0, 0.0, 0.0, 0.0, 0.0, 0.0)",0,0,0,,3.72e-05,-5.88e-06,-2.928e-05,"(0.0, 0.0, 0.0, 0.0, 0.0, 0.0, 0.0, 0.0, 0.0)",
1711562704.522641,1867,1711562704,518865585,imu1_frame,0,0,0,,-0.040331141356002166,-0.008970112719592865,-0.7682564112569563,0.6388075004861028,"(0.0, 0.0, 0.0, 0.0, 0.0, 0.0, 0.0, 0.0, 0.0)",-0.0001673421686812163,7.403686686959947e-05,1.673770752662562e-05,"(0.0, 0.0, 0.0, 0.0, 0.0, 0.0, 0.0, 0.0, 0.0)",-0.691,0.462,-9.685,"(0.0, 0.0, 0.0, 0.0, 0.0, 0.0, 0.0, 0.0, 0.0)",0,0,0,,3.748e-05,-8.49e-06,-2.8570000000000003e-05,"(0.0, 0.0, 0.0, 0.0, 0.0, 0.0, 0.0, 0.0, 0.0)",
1711562704.5466988,1868,1711562704,544890880,imu1_frame,0,0,0,,-0.040331141356002166,-0.008970112719592865,-0.7682564112569563,0.6388075004861028,"(0.0, 0.0, 0.0, 0.0, 0.0, 0.0, 0.0, 0.0, 0.0)",6.66366708411435e-05,-2.9583330821303885e-05,-2.9199358385865133e-05,"(0.0, 0.0, 0.0, 0.0, 0.0, 0.0, 0.0, 0.0, 0.0)",-0.644,0.166,-9.589,"(0.0, 0.0, 0.0, 0.0, 0.0, 0.0, 0.0, 0.0, 0.0)",0,0,0,,3.673e-05,-7.41e-06,-2.7550000000000002e-05,"(0.0, 0.0, 0.0, 0.0, 0.0, 0.0, 0.0, 0.0, 0.0)",
1711562704.5754561,1869,1711562704,568764209,imu1_frame,0,0,0,,-0.04036571107293435,-0.008942175180758623,-0.7682566614160913,0.6388054078218298,"(0.0, 0.0, 0.0, 0.0, 0.0, 0.0, 0.0, 0.0, 0.0)",4.7560222116845484e-05,1.0646508437165409e-05,3.108431397801901e-05,"(0.0, 0.0, 0.0, 0.0, 0.0, 0.0, 0.0, 0.0, 0.0)",-0.674,0.6,-9.609,"(0.0, 0.0, 0.0, 0.0, 0.0, 0.0, 0.0, 0.0, 0.0)",0,0,0,,3.703e-05,-8.949999999999999e-06,-2.8179999999999998e-05,"(0.0, 0.0, 0.0, 0.0, 0.0, 0.0, 0.0, 0.0, 0.0)",
1711562704.5992723,1870,1711562704,597144842,imu1_frame,0,0,0,,-0.04031105173437395,-0.008953360795751795,-0.7682568331504871,0.6388084961521051,"(0.0, 0.0, 0.0, 0.0, 0.0, 0.0, 0.0, 0.0, 0.0)",-0.00010939723751500458,7.3251468706202e-05,2.2776546738525998e-05,"(0.0, 0.0, 0.0, 0.0, 0.0, 0.0, 0.0, 0.0, 0.0)",-0.683,0.357,-9.701,"(0.0, 0.0, 0.0, 0.0, 0.0, 0.0, 0.0, 0.0, 0.0)",0,0,0,,3.73e-05,-6.5900000000000004e-06,-2.8599999999999997e-05,"(0.0, 0.0, 0.0, 0.0, 0.0, 0.0, 0.0, 0.0, 0.0)",
1711562704.6237864,1871,1711562704,621848583,imu1_frame,0,0,0,,-0.04031550449888997,-0.008934368204719871,-0.768257129715806,0.6388081244024797,"(0.0, 0.0, 0.0, 0.0, 0.0, 0.0, 0.0, 0.0, 0.0)",0.00010482447487477943,3.420845333908886e-05,-1.4486232791552934e-06,"(0.0, 0.0, 0.0, 0.0, 0.0, 0.0, 0.0, 0.0, 0.0)",-0.703,0.292,-9.591,"(0.0, 0.0, 0.0, 0.0, 0.0, 0.0, 0.0, 0.0, 0.0)",0,0,0,,3.663e-05,-6.82e-06,-2.8899999999999998e-05,"(0.0, 0.0, 0.0, 0.0, 0.0, 0.0, 0.0, 0.0, 0.0)",
1711562704.6493783,1872,1711562704,645530939,imu1_frame,0,0,0,,-0.04029986762671348,-0.008898623656637274,-0.7682578462248626,0.6388087482809097,"(0.0, 0.0, 0.0, 0.0, 0.0, 0.0, 0.0, 0.0, 0.0)",-3.51509311351658e-05,5.4506632539782905e-05,5.585053606381854e-07,"(0.0, 0.0, 0.0, 0.0, 0.0, 0.0, 0.0, 0.0, 0.0)",-0.693,0.563,-9.53,"(0.0, 0.0, 0.0, 0.0, 0.0, 0.0, 0.0, 0.0, 0.0)",0,0,0,,3.748e-05,-8.37e-06,-2.8970000000000002e-05,"(0.0, 0.0, 0.0, 0.0, 0.0, 0.0, 0.0, 0.0, 0.0)",
1711562704.6729946,1873,1711562704,671041488,imu1_frame,0,0,0,,-0.04027191634928445,-0.008932496659566348,-0.7682518825152641,0.6388172103729952,"(0.0, 0.0, 0.0, 0.0, 0.0, 0.0, 0.0, 0.0, 0.0)",-0.00011213740444063567,3.39815605363296e-05,7.382742735936013e-06,"(0.0, 0.0, 0.0, 0.0, 0.0, 0.0, 0.0, 0.0, 0.0)",-0.731,0.34,-9.731,"(0.0, 0.0, 0.0, 0.0, 0.0, 0.0, 0.0, 0.0, 0.0)",0,0,0,,3.714e-05,-8.949999999999999e-06,-2.858e-05,"(0.0, 0.0, 0.0, 0.0, 0.0, 0.0, 0.0, 0.0, 0.0)",
1711562704.6975892,1874,1711562704,695397853,imu1_frame,0,0,0,,-0.040276369296387976,-0.008913504094329514,-0.7682521784697407,0.638816839005954,"(0.0, 0.0, 0.0, 0.0, 0.0, 0.0, 0.0, 0.0, 0.0)",0.00010567968620825666,9.704030641088471e-06,1.3596114873035825e-05,"(0.0, 0.0, 0.0, 0.0, 0.0, 0.0, 0.0, 0.0, 0.0)",-0.678,0.233,-9.564,"(0.0, 0.0, 0.0, 0.0, 0.0, 0.0, 0.0, 0.0, 0.0)",0,0,0,,3.7069999999999996e-05,-6.9400000000000005e-06,-2.847e-05,"(0.0, 0.0, 0.0, 0.0, 0.0, 0.0, 0.0, 0.0, 0.0)",
1711562704.722091,1875,1711562704,719639062,imu1_frame,0,0,0,,-0.040305364684983545,-0.008892271072836645,-0.7682523491665922,0.6388151008647103,"(0.0, 0.0, 0.0, 0.0, 0.0, 0.0, 0.0, 0.0, 0.0)",-4.968952380427856e-05,-0.0001333082482673269,-3.647738136668149e-06,"(0.0, 0.0, 0.0, 0.0, 0.0, 0.0, 0.0, 0.0, 0.0)",-0.668,0.65,-9.559,"(0.0, 0.0, 0.0, 0.0, 0.0, 0.0, 0.0, 0.0, 0.0)",0,0,0,,3.706e-05,-7.42e-06,-2.8599999999999997e-05,"(0.0, 0.0, 0.0, 0.0, 0.0, 0.0, 0.0, 0.0, 0.0)",
1711562704.7457252,1876,1711562704,743805408,imu1_frame,0,0,0,,-0.04027191634928445,-0.008932496659566348,-0.7682518825152641,0.6388172103729952,"(0.0, 0.0, 0.0, 0.0, 0.0, 0.0, 0.0, 0.0, 0.0)",-6.757914863722044e-05,0.00010620328498385494,1.4940018397071461e-05,"(0.0, 0.0, 0.0, 0.0, 0.0, 0.0, 0.0, 0.0, 0.0)",-0.787,0.259,-9.687,"(0.0, 0.0, 0.0, 0.0, 0.0, 0.0, 0.0, 0.0, 0.0)",0,0,0,,3.706e-05,-7.42e-06,-2.807e-05,"(0.0, 0.0, 0.0, 0.0, 0.0, 0.0, 0.0, 0.0, 0.0)",
1711562704.7718046,1877,1711562704,767929792,imu1_frame,0,0,0,,-0.04028744107789111,-0.008900447137558583,-0.7682467591710271,0.638822840195434,"(0.0, 0.0, 0.0, 0.0, 0.0, 0.0, 0.0, 0.0, 0.0)",0.00010189232173142895,2.7628562059070232e-05,-2.8972465583105867e-06,"(0.0, 0.0, 0.0, 0.0, 0.0, 0.0, 0.0, 0.0, 0.0)",-0.713,0.386,-9.63,"(0.0, 0.0, 0.0, 0.0, 0.0, 0.0, 0.0, 0.0, 0.0)",0,0,0,,3.705e-05,-7.65e-06,-2.753e-05,"(0.0, 0.0, 0.0, 0.0, 0.0, 0.0, 0.0, 0.0, 0.0)",
1711562704.7974265,1878,1711562704,794033765,imu1_frame,0,0,0,,-0.04027300394475801,-0.00887663916408478,-0.7682528312818846,0.6388167794115808,"(0.0, 0.0, 0.0, 0.0, 0.0, 0.0, 0.0, 0.0, 0.0)",-6.761405522226032e-05,8.569566627292157e-06,-3.3073989325292546e-05,"(0.0, 0.0, 0.0, 0.0, 0.0, 0.0, 0.0, 0.0, 0.0)",-0.706,0.541,-9.54,"(0.0, 0.0, 0.0, 0.0, 0.0, 0.0, 0.0, 0.0, 0.0)",0,0,0,,3.772e-05,-7.55e-06,-2.883e-05,"(0.0, 0.0, 0.0, 0.0, 0.0, 0.0, 0.0, 0.0, 0.0)",
1711562704.821899,1879,1711562704,819350242,imu1_frame,0,0,0,,-0.04027191634928445,-0.008932496659566348,-0.7682518825152641,0.6388172103729952,"(0.0, 0.0, 0.0, 0.0, 0.0, 0.0, 0.0, 0.0, 0.0)",-3.3091442617812484e-05,-6.740461571202101e-05,4.86946861306418e-06,"(0.0, 0.0, 0.0, 0.0, 0.0, 0.0, 0.0, 0.0, 0.0)",-0.813,0.265,-9.725,"(0.0, 0.0, 0.0, 0.0, 0.0, 0.0, 0.0, 0.0, 0.0)",0,0,0,,3.7159999999999997e-05,-7.65e-06,-2.8460000000000002e-05,"(0.0, 0.0, 0.0, 0.0, 0.0, 0.0, 0.0, 0.0, 0.0)",
1711562704.8465085,1880,1711562704,843268632,imu1_frame,0,0,0,,-0.04030083398658791,-0.00891161533673209,-0.7682464789732095,0.6388221766950029,"(0.0, 0.0, 0.0, 0.0, 0.0, 0.0, 0.0, 0.0, 0.0)",0.0001337969404578853,0.00012229522068724267,1.2688543661998776e-05,"(0.0, 0.0, 0.0, 0.0, 0.0, 0.0, 0.0, 0.0, 0.0)",-0.719,0.35,-9.563,"(0.0, 0.0, 0.0, 0.0, 0.0, 0.0, 0.0, 0.0, 0.0)",0,0,0,,3.705e-05,-7.65e-06,-2.753e-05,"(0.0, 0.0, 0.0, 0.0, 0.0, 0.0, 0.0, 0.0, 0.0)",
1711562704.869669,1881,1711562704,867905855,imu1_frame,0,0,0,,-0.04031875767341912,-0.008903439158668534,-0.768252069040893,0.6388144370356754,"(0.0, 0.0, 0.0, 0.0, 0.0, 0.0, 0.0, 0.0, 0.0)",-9.346238144429635e-05,-8.674286382411817e-06,-1.2653637076958888e-05,"(0.0, 0.0, 0.0, 0.0, 0.0, 0.0, 0.0, 0.0, 0.0)",-0.673,0.629,-9.578,"(0.0, 0.0, 0.0, 0.0, 0.0, 0.0, 0.0, 0.0, 0.0)",0,0,0,,3.728e-05,-7.18e-06,-2.913e-05,"(0.0, 0.0, 0.0, 0.0, 0.0, 0.0, 0.0, 0.0, 0.0)",
1711562704.8940158,1882,1711562704,891905546,imu1_frame,0,0,0,,-0.04029862423617069,-0.008955184471319873,-0.7682457461108272,0.6388225881560347,"(0.0, 0.0, 0.0, 0.0, 0.0, 0.0, 0.0, 0.0, 0.0)",3.263765701229396e-05,-2.3160519173964753e-05,-2.267182698340634e-05,"(0.0, 0.0, 0.0, 0.0, 0.0, 0.0, 0.0, 0.0, 0.0)",-0.798,0.195,-9.734,"(0.0, 0.0, 0.0, 0.0, 0.0, 0.0, 0.0, 0.0, 0.0)",0,0,0,,3.736e-05,-9.080000000000001e-06,-2.8299999999999997e-05,"(0.0, 0.0, 0.0, 0.0, 0.0, 0.0, 0.0, 0.0, 0.0)",
1711562704.918198,1883,1711562704,916248083,imu1_frame,0,0,0,,-0.04029963464748041,-0.008899678701654945,-0.7682411219876646,0.6388288610053724,"(0.0, 0.0, 0.0, 0.0, 0.0, 0.0, 0.0, 0.0, 0.0)",8.398524360596715e-05,0.00015292574905974315,1.614429558094755e-05,"(0.0, 0.0, 0.0, 0.0, 0.0, 0.0, 0.0, 0.0, 0.0)",-0.708,0.458,-9.579,"(0.0, 0.0, 0.0, 0.0, 0.0, 0.0, 0.0, 0.0, 0.0)",0,0,0,,3.73e-05,-6.36e-06,-2.887e-05,"(0.0, 0.0, 0.0, 0.0, 0.0, 0.0, 0.0, 0.0, 0.0)",
1711562704.943166,1884,1711562704,940947294,imu1_frame,0,0,0,,-0.04029963464748041,-0.008899678701654945,-0.7682411219876646,0.6388288610053724,"(0.0, 0.0, 0.0, 0.0, 0.0, 0.0, 0.0, 0.0, 0.0)",-0.00011576768928478388,2.7803094984269668e-05,-2.3195425759004638e-05,"(0.0, 0.0, 0.0, 0.0, 0.0, 0.0, 0.0, 0.0, 0.0)",-0.681,0.555,-9.621,"(0.0, 0.0, 0.0, 0.0, 0.0, 0.0, 0.0, 0.0, 0.0)",0,0,0,,3.772e-05,-7.78e-06,-2.856e-05,"(0.0, 0.0, 0.0, 0.0, 0.0, 0.0, 0.0, 0.0, 0.0)",
1711562704.9683719,1885,1711562704,966570138,imu1_frame,0,0,0,,-0.04028619667466503,-0.008957007716901937,-0.7682346587937423,0.6388366797533717,"(0.0, 0.0, 0.0, 0.0, 0.0, 0.0, 0.0, 0.0, 0.0)",5.6897733615015145e-05,-7.723081940074908e-05,-7.278022980816354e-06,"(0.0, 0.0, 0.0, 0.0, 0.0, 0.0, 0.0, 0.0, 0.0)",-0.685,0.162,-9.729,"(0.0, 0.0, 0.0, 0.0, 0.0, 0.0, 0.0, 0.0, 0.0)",0,0,0,,3.727e-05,-7.77e-06,-2.8449999999999997e-05,"(0.0, 0.0, 0.0, 0.0, 0.0, 0.0, 0.0, 0.0, 0.0)",
1711562704.9935818,1886,1711562704,991280555,imu1_frame,0,0,0,,-0.040307296970784494,-0.008918254680924264,-0.768229614206481,0.6388419572950078,"(0.0, 0.0, 0.0, 0.0, 0.0, 0.0, 0.0, 0.0, 0.0)",0.00011842058974781526,-5.304055596810767e-05,-3.839724354387525e-07,"(0.0, 0.0, 0.0, 0.0, 0.0, 0.0, 0.0, 0.0, 0.0)",-0.702,0.45,-9.55,"(0.0, 0.0, 0.0, 0.0, 0.0, 0.0, 0.0, 0.0, 0.0)",0,0,0,,3.749e-05,-7.9e-06,-2.844e-05,"(0.0, 0.0, 0.0, 0.0, 0.0, 0.0, 0.0, 0.0, 0.0)",
1711562705.0185184,1887,1711562705,16269683,imu1_frame,0,0,0,,-0.04032746383413334,-0.008934655575315484,-0.7682347682313536,0.6388342574337851,"(0.0, 0.0, 0.0, 0.0, 0.0, 0.0, 0.0, 0.0, 0.0)",-0.0001473930553309211,-4.0666171571467875e-05,-1.0157816246606998e-05,"(0.0, 0.0, 0.0, 0.0, 0.0, 0.0, 0.0, 0.0, 0.0)",-0.681,0.585,-9.643,"(0.0, 0.0, 0.0, 0.0, 0.0, 0.0, 0.0, 0.0, 0.0)",0,0,0,,3.728e-05,-7.18e-06,-2.886e-05,"(0.0, 0.0, 0.0, 0.0, 0.0, 0.0, 0.0, 0.0, 0.0)",
1711562705.04368,1888,1711562705,41076660,imu1_frame,0,0,0,,-0.04031058288224164,-0.008955471465210883,-0.7682233841627497,0.6388487211101403,"(0.0, 0.0, 0.0, 0.0, 0.0, 0.0, 0.0, 0.0, 0.0)",7.805112414918643e-05,-0.00018268361280624647,3.7350045992678654e-06,"(0.0, 0.0, 0.0, 0.0, 0.0, 0.0, 0.0, 0.0, 0.0)",-0.721,0.179,-9.676,"(0.0, 0.0, 0.0, 0.0, 0.0, 0.0, 0.0, 0.0, 0.0)",0,0,0,,3.727e-05,-8.010000000000001e-06,-2.8179999999999998e-05,"(0.0, 0.0, 0.0, 0.0, 0.0, 0.0, 0.0, 0.0, 0.0)",
1711562705.0684195,1889,1711562705,66713333,imu1_frame,0,0,0,,-0.04033288288488955,-0.00892865540487144,-0.7682236962996476,0.6388473136161423,"(0.0, 0.0, 0.0, 0.0, 0.0, 0.0, 0.0, 0.0, 0.0)",3.380702761113016e-05,-3.361504139341079e-05,1.6231562043547263e-05,"(0.0, 0.0, 0.0, 0.0, 0.0, 0.0, 0.0, 0.0, 0.0)",-0.658,0.549,-9.584,"(0.0, 0.0, 0.0, 0.0, 0.0, 0.0, 0.0, 0.0, 0.0)",0,0,0,,3.718e-05,-6.95e-06,-2.8599999999999997e-05,"(0.0, 0.0, 0.0, 0.0, 0.0, 0.0, 0.0, 0.0, 0.0)",
1711562705.093318,1890,1711562705,91540575,imu1_frame,0,0,0,,-0.04032277599284524,-0.008954703661236012,-0.7682177467480786,0.6388547413926543,"(0.0, 0.0, 0.0, 0.0, 0.0, 0.0, 0.0, 0.0, 0.0)",-0.0002036101105376585,-6.181956210563915e-05,-7.9412480965742e-06,"(0.0, 0.0, 0.0, 0.0, 0.0, 0.0, 0.0, 0.0, 0.0)",-0.74,0.44,-9.659,"(0.0, 0.0, 0.0, 0.0, 0.0, 0.0, 0.0, 0.0, 0.0)",0,0,0,,3.727e-05,-7.77e-06,-3.032e-05,"(0.0, 0.0, 0.0, 0.0, 0.0, 0.0, 0.0, 0.0, 0.0)",
1711562705.1188636,1891,1711562705,116269350,imu1_frame,0,0,0,,-0.04031050472947516,-0.00895582324106722,-0.7682178091266955,0.6388554250995366,"(0.0, 0.0, 0.0, 0.0, 0.0, 0.0, 0.0, 0.0, 0.0)",7.108726043372904e-05,5.916666164260777e-05,1.1309733552923257e-05,"(0.0, 0.0, 0.0, 0.0, 0.0, 0.0, 0.0, 0.0, 0.0)",-0.729,0.15,-9.555,"(0.0, 0.0, 0.0, 0.0, 0.0, 0.0, 0.0, 0.0, 0.0)",0,0,0,,3.7159999999999997e-05,-7.889999999999999e-06,-2.899e-05,"(0.0, 0.0, 0.0, 0.0, 0.0, 0.0, 0.0, 0.0, 0.0)",
1711562705.1441486,1892,1711562705,142209053,imu1_frame,0,0,0,,-0.04034387726122107,-0.008915951505469108,-0.7682127019233161,0.6388600175155446,"(0.0, 0.0, 0.0, 0.0, 0.0, 0.0, 0.0, 0.0, 0.0)",6.752678875966062e-05,2.1293016874330818e-05,2.5551620249196984e-05,"(0.0, 0.0, 0.0, 0.0, 0.0, 0.0, 0.0, 0.0, 0.0)",-0.651,0.611,-9.629,"(0.0, 0.0, 0.0, 0.0, 0.0, 0.0, 0.0, 0.0, 0.0)",0,0,0,,3.7380000000000005e-05,-8.13e-06,-2.7639999999999996e-05,"(0.0, 0.0, 0.0, 0.0, 0.0, 0.0, 0.0, 0.0, 0.0)",
1711562705.1715827,1893,1711562705,166309356,imu1_frame,0,0,0,,-0.04033264911941583,-0.008929711314216257,-0.7682069710528232,0.6388674254465488,"(0.0, 0.0, 0.0, 0.0, 0.0, 0.0, 0.0, 0.0, 0.0)",-0.0002151816434783809,0.00012730431564046641,3.541273052296495e-05,"(0.0, 0.0, 0.0, 0.0, 0.0, 0.0, 0.0, 0.0, 0.0)",-0.75,0.425,-9.719,"(0.0, 0.0, 0.0, 0.0, 0.0, 0.0, 0.0, 0.0, 0.0)",0,0,0,,3.76e-05,-8.02e-06,-3.017e-05,"(0.0, 0.0, 0.0, 0.0, 0.0, 0.0, 0.0, 0.0, 0.0)",
1711562705.1965153,1894,1711562705,193244218,imu1_frame,0,0,0,,-0.04030466616333548,-0.008895436621347261,-0.7682021743764635,0.6388754372927882,"(0.0, 0.0, 0.0, 0.0, 0.0, 0.0, 0.0, 0.0, 0.0)",1.9268434942017395e-05,-7.714355293814937e-05,3.946189438759179e-05,"(0.0, 0.0, 0.0, 0.0, 0.0, 0.0, 0.0, 0.0, 0.0)",-0.697,0.221,-9.533,"(0.0, 0.0, 0.0, 0.0, 0.0, 0.0, 0.0, 0.0, 0.0)",0,0,0,,3.73e-05,-6.5900000000000004e-06,-2.8329999999999998e-05,"(0.0, 0.0, 0.0, 0.0, 0.0, 0.0, 0.0, 0.0, 0.0)",
1711562705.2198606,1895,1711562705,217781782,imu1_frame,0,0,0,,-0.04034593440696278,-0.008873086619620624,-0.7682022821956171,0.6388730136264289,"(0.0, 0.0, 0.0, 0.0, 0.0, 0.0, 0.0, 0.0, 0.0)",1.8832102629018817e-05,-2.5028021473598685e-05,-1.3648474750595656e-05,"(0.0, 0.0, 0.0, 0.0, 0.0, 0.0, 0.0, 0.0, 0.0)",-0.662,0.569,-9.61,"(0.0, 0.0, 0.0, 0.0, 0.0, 0.0, 0.0, 0.0, 0.0)",0,0,0,,3.751e-05,-6.83e-06,-2.8179999999999998e-05,"(0.0, 0.0, 0.0, 0.0, 0.0, 0.0, 0.0, 0.0, 0.0)",
1711562705.2452393,1896,1711562705,241516590,imu1_frame,0,0,0,,-0.04031693745601189,-0.008894317362777359,-0.7682021120157461,0.6388747535842728,"(0.0, 0.0, 0.0, 0.0, 0.0, 0.0, 0.0, 0.0, 0.0)",-2.0577431881013143e-05,-5.5885442648858436e-05,6.021385919380436e-06,"(0.0, 0.0, 0.0, 0.0, 0.0, 0.0, 0.0, 0.0, 0.0)",-0.739,0.306,-9.74,"(0.0, 0.0, 0.0, 0.0, 0.0, 0.0, 0.0, 0.0, 0.0)",0,0,0,,3.752e-05,-6.710000000000001e-06,-3.019e-05,"(0.0, 0.0, 0.0, 0.0, 0.0, 0.0, 0.0, 0.0, 0.0)",
1711562705.2690318,1897,1711562705,267170667,imu1_frame,0,0,0,,-0.040353673672621354,-0.008891311746174442,-0.7681963495710663,0.6388794049758092,"(0.0, 0.0, 0.0, 0.0, 0.0, 0.0, 0.0, 0.0, 0.0)",6.276203990171609e-05,-8.250171374177196e-05,2.040289895581371e-05,"(0.0, 0.0, 0.0, 0.0, 0.0, 0.0, 0.0, 0.0, 0.0)",-0.683,0.32,-9.599,"(0.0, 0.0, 0.0, 0.0, 0.0, 0.0, 0.0, 0.0, 0.0)",0,0,0,,3.718e-05,-7.059999999999999e-06,-2.953e-05,"(0.0, 0.0, 0.0, 0.0, 0.0, 0.0, 0.0, 0.0, 0.0)",
1711562705.2932098,1898,1711562705,290924310,imu1_frame,0,0,0,,-0.040363780869136064,-0.008865263535496451,-0.768202297159798,0.6388719769521933,"(0.0, 0.0, 0.0, 0.0, 0.0, 0.0, 0.0, 0.0, 0.0)",-7.080800775340994e-05,5.956808737056646e-05,-7.62708883121522e-06,"(0.0, 0.0, 0.0, 0.0, 0.0, 0.0, 0.0, 0.0, 0.0)",-0.662,0.639,-9.547,"(0.0, 0.0, 0.0, 0.0, 0.0, 0.0, 0.0, 0.0, 0.0)",0,0,0,,3.7380000000000005e-05,-8.13e-06,-2.898e-05,"(0.0, 0.0, 0.0, 0.0, 0.0, 0.0, 0.0, 0.0, 0.0)",
1711562705.3181295,1899,1711562705,316679954,imu1_frame,0,0,0,,-0.040343799453330026,-0.008916303571875221,-0.7682071267886822,0.6388667214117205,"(0.0, 0.0, 0.0, 0.0, 0.0, 0.0, 0.0, 0.0, 0.0)",1.7296212887263805e-05,7.571238295151402e-05,-3.248057737961448e-05,"(0.0, 0.0, 0.0, 0.0, 0.0, 0.0, 0.0, 0.0, 0.0)",-0.773,0.227,-9.687,"(0.0, 0.0, 0.0, 0.0, 0.0, 0.0, 0.0, 0.0, 0.0)",0,0,0,,3.747e-05,-9.2e-06,-2.923e-05,"(0.0, 0.0, 0.0, 0.0, 0.0, 0.0, 0.0, 0.0, 0.0)",
1711562705.3436093,1900,1711562705,341560363,imu1_frame,0,0,0,,-0.040366022507331845,-0.00888984033938689,-0.7682018623775292,0.6388720166084703,"(0.0, 0.0, 0.0, 0.0, 0.0, 0.0, 0.0, 0.0, 0.0)",9.555677654668955e-05,6.103416394224171e-05,3.7576938795437914e-05,"(0.0, 0.0, 0.0, 0.0, 0.0, 0.0, 0.0, 0.0, 0.0)",-0.7,0.386,-9.564,"(0.0, 0.0, 0.0, 0.0, 0.0, 0.0, 0.0, 0.0, 0.0)",0,0,0,,3.75e-05,-7.66e-06,-2.858e-05,"(0.0, 0.0, 0.0, 0.0, 0.0, 0.0, 0.0, 0.0, 0.0)",
1711562705.3699155,1901,1711562705,366312265,imu1_frame,0,0,0,,-0.04037941455887516,-0.008901009482513446,-0.7682015822062943,0.6388713516865666,"(0.0, 0.0, 0.0, 0.0, 0.0, 0.0, 0.0, 0.0, 0.0)",-9.724974592112404e-05,-4.904375198104066e-05,5.532693728822025e-06,"(0.0, 0.0, 0.0, 0.0, 0.0, 0.0, 0.0, 0.0, 0.0)",-0.741,0.554,-9.582,"(0.0, 0.0, 0.0, 0.0, 0.0, 0.0, 0.0, 0.0, 0.0)",0,0,0,,3.7869999999999995e-05,-5.66e-06,-2.9520000000000002e-05,"(0.0, 0.0, 0.0, 0.0, 0.0, 0.0, 0.0, 0.0, 0.0)",
1711562705.3942506,1902,1711562705,392116785,imu1_frame,0,0,0,,-0.040371470361256136,-0.008951986899028739,-0.7681896211296524,0.6388855236269725,"(0.0, 0.0, 0.0, 0.0, 0.0, 0.0, 0.0, 0.0, 0.0)",7.202973822980596e-05,-0.00010433578268422102,2.595304597715568e-05,"(0.0, 0.0, 0.0, 0.0, 0.0, 0.0, 0.0, 0.0, 0.0)",-0.73,0.216,-9.7,"(0.0, 0.0, 0.0, 0.0, 0.0, 0.0, 0.0, 0.0, 0.0)",0,0,0,,3.7709999999999996e-05,-8.37e-06,-3.069e-05,"(0.0, 0.0, 0.0, 0.0, 0.0, 0.0, 0.0, 0.0, 0.0)",
1711562705.4192193,1903,1711562705,416918992,imu1_frame,0,0,0,,-0.04041490185211967,-0.008954567153225955,-0.7681837177793193,0.6388898396234871,"(0.0, 0.0, 0.0, 0.0, 0.0, 0.0, 0.0, 0.0, 0.0)",0.00013116149328737387,-7.997098632638018e-05,1.647590813882647e-05,"(0.0, 0.0, 0.0, 0.0, 0.0, 0.0, 0.0, 0.0, 0.0)",-0.746,0.436,-9.588,"(0.0, 0.0, 0.0, 0.0, 0.0, 0.0, 0.0, 0.0, 0.0)",0,0,0,,3.7709999999999996e-05,-7.9e-06,-2.95e-05,"(0.0, 0.0, 0.0, 0.0, 0.0, 0.0, 0.0, 0.0, 0.0)",
1711562705.4452744,1904,1711562705,441759824,imu1_frame,0,0,0,,-0.040401588168771416,-0.008943045103883902,-0.7681895742892846,0.6388838013058076,"(0.0, 0.0, 0.0, 0.0, 0.0, 0.0, 0.0, 0.0, 0.0)",-0.00010222393428930789,1.7697638615222502e-05,-1.832595714594046e-05,"(0.0, 0.0, 0.0, 0.0, 0.0, 0.0, 0.0, 0.0, 0.0)",-0.668,0.609,-9.66,"(0.0, 0.0, 0.0, 0.0, 0.0, 0.0, 0.0, 0.0, 0.0)",0,0,0,,3.7630000000000004e-05,-6.36e-06,-2.858e-05,"(0.0, 0.0, 0.0, 0.0, 0.0, 0.0, 0.0, 0.0, 0.0)",
1711562705.4703465,1905,1711562705,466797590,imu1_frame,0,0,0,,-0.04038040749426677,-0.008982148364164161,-0.7681890425428468,0.6388852311788601,"(0.0, 0.0, 0.0, 0.0, 0.0, 0.0, 0.0, 0.0, 0.0)",-7.1733032256966945e-06,-1.4922565104551517e-05,-5.934119456780721e-06,"(0.0, 0.0, 0.0, 0.0, 0.0, 0.0, 0.0, 0.0, 0.0)",-0.769,0.147,-9.699,"(0.0, 0.0, 0.0, 0.0, 0.0, 0.0, 0.0, 0.0, 0.0)",0,0,0,,3.747e-05,-8.96e-06,-2.963e-05,"(0.0, 0.0, 0.0, 0.0, 0.0, 0.0, 0.0, 0.0, 0.0)",
1711562705.4959803,1906,1711562705,493224143,imu1_frame,0,0,0,,-0.040370193725217926,-0.008940403092609475,-0.7681786889281517,0.6388989110397326,"(0.0, 0.0, 0.0, 0.0, 0.0, 0.0, 0.0, 0.0, 0.0)",9.534733703645022e-05,2.782054827678961e-05,2.6878070480712672e-05,"(0.0, 0.0, 0.0, 0.0, 0.0, 0.0, 0.0, 0.0, 0.0)",-0.695,0.385,-9.633,"(0.0, 0.0, 0.0, 0.0, 0.0, 0.0, 0.0, 0.0, 0.0)",0,0,0,,3.769e-05,-9.32e-06,-3.001e-05,"(0.0, 0.0, 0.0, 0.0, 0.0, 0.0, 0.0, 0.0, 0.0)",
1711562705.5216172,1907,1711562705,519074678,imu1_frame,0,0,0,,-0.04036349789047112,-0.008934818293907328,-0.7681788293433607,0.6388992433934828,"(0.0, 0.0, 0.0, 0.0, 0.0, 0.0, 0.0, 0.0, 0.0)",-8.538150700756259e-05,4.5081854579013536e-05,3.9095375244672985e-06,"(0.0, 0.0, 0.0, 0.0, 0.0, 0.0, 0.0, 0.0, 0.0)",-0.649,0.498,-9.651,"(0.0, 0.0, 0.0, 0.0, 0.0, 0.0, 0.0, 0.0, 0.0)",0,0,0,,3.753e-05,-6.2399999999999995e-06,-3.0059999999999997e-05,"(0.0, 0.0, 0.0, 0.0, 0.0, 0.0, 0.0, 0.0, 0.0)",
1711562705.546154,1908,1711562705,543349504,imu1_frame,0,0,0,,-0.04037235626561072,-0.008965332244680862,-0.7681726760964256,0.638905654511025,"(0.0, 0.0, 0.0, 0.0, 0.0, 0.0, 0.0, 0.0, 0.0)",5.970771371072601e-05,-8.244935386421213e-05,8.90117918517108e-07,"(0.0, 0.0, 0.0, 0.0, 0.0, 0.0, 0.0, 0.0, 0.0)",-0.69,0.236,-9.671,"(0.0, 0.0, 0.0, 0.0, 0.0, 0.0, 0.0, 0.0, 0.0)",0,0,0,,3.773e-05,-6.95e-06,-3.057e-05,"(0.0, 0.0, 0.0, 0.0, 0.0, 0.0, 0.0, 0.0, 0.0)",
1711562705.5694556,1909,1711562705,567387819,imu1_frame,0,0,0,,-0.04038564417650018,-0.008908708652655317,-0.768167989771566,0.6389112412103128,"(0.0, 0.0, 0.0, 0.0, 0.0, 0.0, 0.0, 0.0, 0.0)",4.173082241518442e-05,-4.159119607502488e-05,8.848819307611251e-06,"(0.0, 0.0, 0.0, 0.0, 0.0, 0.0, 0.0, 0.0, 0.0)",-0.688,0.529,-9.575,"(0.0, 0.0, 0.0, 0.0, 0.0, 0.0, 0.0, 0.0, 0.0)",0,0,0,,3.78e-05,-8.97e-06,-3.001e-05,"(0.0, 0.0, 0.0, 0.0, 0.0, 0.0, 0.0, 0.0, 0.0)",
1711562705.593871,1910,1711562705,591902017,imu1_frame,0,0,0,,-0.040387962481514245,-0.008932933096157057,-0.7681731290093945,0.6389045774298441,"(0.0, 0.0, 0.0, 0.0, 0.0, 0.0, 0.0, 0.0, 0.0)",-0.0001886177322630272,8.696975662687743e-05,-2.7314402793711254e-05,"(0.0, 0.0, 0.0, 0.0, 0.0, 0.0, 0.0, 0.0, 0.0)",-0.653,0.534,-9.724,"(0.0, 0.0, 0.0, 0.0, 0.0, 0.0, 0.0, 0.0, 0.0)",0,0,0,,3.773e-05,-7.190000000000001e-06,-2.9239999999999998e-05,"(0.0, 0.0, 0.0, 0.0, 0.0, 0.0, 0.0, 0.0, 0.0)",
1711562705.6188688,1911,1711562705,616563558,imu1_frame,0,0,0,,-0.04034995045855977,-0.008924352935309916,-0.7681679589742942,0.638913315112422,"(0.0, 0.0, 0.0, 0.0, 0.0, 0.0, 0.0, 0.0, 0.0)",0.00010101965710543178,-3.39466539512897e-05,4.939281783143952e-06,"(0.0, 0.0, 0.0, 0.0, 0.0, 0.0, 0.0, 0.0, 0.0)",-0.637,0.128,-9.585,"(0.0, 0.0, 0.0, 0.0, 0.0, 0.0, 0.0, 0.0, 0.0)",0,0,0,,3.758e-05,-9.080000000000001e-06,-2.989e-05,"(0.0, 0.0, 0.0, 0.0, 0.0, 0.0, 0.0, 0.0, 0.0)",
1711562705.642536,1912,1711562705,642104625,imu1_frame,0,0,0,,-0.04038228365050712,-0.008871843282202923,-0.7681686425915053,0.6389111817013929,"(0.0, 0.0, 0.0, 0.0, 0.0, 0.0, 0.0, 0.0, 0.0)",7.225663103256524e-05,-6.942919764433443e-05,1.2304571226560022e-05,"(0.0, 0.0, 0.0, 0.0, 0.0, 0.0, 0.0, 0.0, 0.0)",-0.618,0.569,-9.599,"(0.0, 0.0, 0.0, 0.0, 0.0, 0.0, 0.0, 0.0, 0.0)",0,0,0,,3.804e-05,-8.5e-06,-3.001e-05,"(0.0, 0.0, 0.0, 0.0, 0.0, 0.0, 0.0, 0.0, 0.0)",
1711562705.668368,1913,1711562705,666846036,imu1_frame,0,0,0,,-0.0403644368055433,-0.008879665428478765,-0.7681686275633535,0.6389122188616241,"(0.0, 0.0, 0.0, 0.0, 0.0, 0.0, 0.0, 0.0, 0.0)",-0.0001903456082225016,3.371976114853044e-05,1.3648474750595656e-05,"(0.0, 0.0, 0.0, 0.0, 0.0, 0.0, 0.0, 0.0, 0.0)",-0.682,0.44,-9.711,"(0.0, 0.0, 0.0, 0.0, 0.0, 0.0, 0.0, 0.0, 0.0)",0,0,0,,3.781e-05,-8.85e-06,-3.0680000000000004e-05,"(0.0, 0.0, 0.0, 0.0, 0.0, 0.0, 0.0, 0.0, 0.0)",
1711562705.6937146,1914,1711562705,691735506,imu1_frame,0,0,0,,-0.040336456468959885,-0.008845389256371879,-0.7681638279596352,0.6389202319404442,"(0.0, 0.0, 0.0, 0.0, 0.0, 0.0, 0.0, 0.0, 0.0)",7.681194038027045e-05,-3.127630019573839e-05,2.118829711921116e-05,"(0.0, 0.0, 0.0, 0.0, 0.0, 0.0, 0.0, 0.0, 0.0)",-0.687,0.31,-9.54,"(0.0, 0.0, 0.0, 0.0, 0.0, 0.0, 0.0, 0.0, 0.0)",0,0,0,,3.8140000000000004e-05,-8.97e-06,-3.053e-05,"(0.0, 0.0, 0.0, 0.0, 0.0, 0.0, 0.0, 0.0, 0.0)",
1711562705.7194462,1915,1711562705,716964006,imu1_frame,0,0,0,,-0.04035318334769234,-0.00882527877135398,-0.7681640592681388,0.6389191757155289,"(0.0, 0.0, 0.0, 0.0, 0.0, 0.0, 0.0, 0.0, 0.0)",4.368559117741806e-05,1.0210176124166828e-05,-2.6319565120074488e-05,"(0.0, 0.0, 0.0, 0.0, 0.0, 0.0, 0.0, 0.0, 0.0)",-0.622,0.602,-9.574,"(0.0, 0.0, 0.0, 0.0, 0.0, 0.0, 0.0, 0.0, 0.0)",0,0,0,,3.803e-05,-8.85e-06,-2.9999999999999997e-05,"(0.0, 0.0, 0.0, 0.0, 0.0, 0.0, 0.0, 0.0, 0.0)",
1711562705.744,1916,1711562705,742159366,imu1_frame,0,0,0,,-0.04034419488878884,-0.008863614791619909,-0.7681578957512752,0.6389266229126582,"(0.0, 0.0, 0.0, 0.0, 0.0, 0.0, 0.0, 0.0, 0.0)",-0.0001087689189842866,4.895648551844095e-05,3.4906585039886588e-06,"(0.0, 0.0, 0.0, 0.0, 0.0, 0.0, 0.0, 0.0, 0.0)",-0.79,0.393,-9.669,"(0.0, 0.0, 0.0, 0.0, 0.0, 0.0, 0.0, 0.0, 0.0)",0,0,0,,3.715e-05,-8.48e-06,-2.979e-05,"(0.0, 0.0, 0.0, 0.0, 0.0, 0.0, 0.0, 0.0, 0.0)",
1711562705.7688344,1917,1711562705,767023563,imu1_frame,0,0,0,,-0.04033072633226466,-0.008852796655343833,-0.768152599354957,0.6389339908074338,"(0.0, 0.0, 0.0, 0.0, 0.0, 0.0, 0.0, 0.0, 0.0)",7.532841051607527e-05,1.525417766243044e-05,1.059414855960558e-05,"(0.0, 0.0, 0.0, 0.0, 0.0, 0.0, 0.0, 0.0, 0.0)",-0.685,0.276,-9.569,"(0.0, 0.0, 0.0, 0.0, 0.0, 0.0, 0.0, 0.0, 0.0)",0,0,0,,3.7680000000000005e-05,-9.79e-06,-3.201e-05,"(0.0, 0.0, 0.0, 0.0, 0.0, 0.0, 0.0, 0.0, 0.0)",
1711562705.7933383,1918,1711562705,791864395,imu1_frame,0,0,0,,-0.04033406237095827,-0.008821516248832241,-0.7681531096505169,0.638933599365355,"(0.0, 0.0, 0.0, 0.0, 0.0, 0.0, 0.0, 0.0, 0.0)",-4.591961261997082e-05,2.9373891311064568e-05,-1.9198621771937624e-07,"(0.0, 0.0, 0.0, 0.0, 0.0, 0.0, 0.0, 0.0, 0.0)",-0.7,0.633,-9.558,"(0.0, 0.0, 0.0, 0.0, 0.0, 0.0, 0.0, 0.0, 0.0)",0,0,0,,3.758e-05,-9.080000000000001e-06,-3.056e-05,"(0.0, 0.0, 0.0, 0.0, 0.0, 0.0, 0.0, 0.0, 0.0)",
1711562705.8193805,1919,1711562705,816752433,imu1_frame,0,0,0,,-0.040293834922498606,-0.00885650316843735,-0.7681472105072179,0.6389427456422413,"(0.0, 0.0, 0.0, 0.0, 0.0, 0.0, 0.0, 0.0, 0.0)",-2.853613327010729e-05,-9.344492815177642e-05,-3.665191429188092e-06,"(0.0, 0.0, 0.0, 0.0, 0.0, 0.0, 0.0, 0.0, 0.0)",-0.766,0.24,-9.716,"(0.0, 0.0, 0.0, 0.0, 0.0, 0.0, 0.0, 0.0, 0.0)",0,0,0,,3.7840000000000004e-05,-7.3099999999999995e-06,-3.11e-05,"(0.0, 0.0, 0.0, 0.0, 0.0, 0.0, 0.0, 0.0, 0.0)",
1711562705.8446355,1920,1711562705,842463970,imu1_frame,0,0,0,,-0.04031718079298868,-0.008842330116087791,-0.7681417268100875,0.6389480617892508,"(0.0, 0.0, 0.0, 0.0, 0.0, 0.0, 0.0, 0.0, 0.0)",0.00012224286080968284,6.049311187412346e-05,2.183406894244906e-05,"(0.0, 0.0, 0.0, 0.0, 0.0, 0.0, 0.0, 0.0, 0.0)",-0.751,0.352,-9.531,"(0.0, 0.0, 0.0, 0.0, 0.0, 0.0, 0.0, 0.0, 0.0)",0,0,0,,3.752e-05,-6.6e-06,-3.072e-05,"(0.0, 0.0, 0.0, 0.0, 0.0, 0.0, 0.0, 0.0, 0.0)",
1711562705.8693984,1921,1711562705,867122411,imu1_frame,0,0,0,,-0.04033614768205329,-0.008846797258930611,-0.7681415249682377,0.6389470455271714,"(0.0, 0.0, 0.0, 0.0, 0.0, 0.0, 0.0, 0.0, 0.0)",-0.00010152580258851015,3.719296635999916e-05,-1.7680185322702558e-05,"(0.0, 0.0, 0.0, 0.0, 0.0, 0.0, 0.0, 0.0, 0.0)",-0.661,0.547,-9.593,"(0.0, 0.0, 0.0, 0.0, 0.0, 0.0, 0.0, 0.0, 0.0)",0,0,0,,3.758e-05,-9.080000000000001e-06,-3.162e-05,"(0.0, 0.0, 0.0, 0.0, 0.0, 0.0, 0.0, 0.0, 0.0)",
1711562705.894855,1922,1711562705,893241405,imu1_frame,0,0,0,,-0.040308345813261044,-0.008879961990991314,-0.7681467140736202,0.6389421015950798,"(0.0, 0.0, 0.0, 0.0, 0.0, 0.0, 0.0, 0.0, 0.0)",-2.2410027595607193e-05,-0.0001012290966156711,-1.3055062804917584e-05,"(0.0, 0.0, 0.0, 0.0, 0.0, 0.0, 0.0, 0.0, 0.0)",-0.746,0.248,-9.726,"(0.0, 0.0, 0.0, 0.0, 0.0, 0.0, 0.0, 0.0, 0.0)",0,0,0,,3.783e-05,-7.9e-06,-3.136e-05,"(0.0, 0.0, 0.0, 0.0, 0.0, 0.0, 0.0, 0.0, 0.0)",
1711562705.9188328,1923,1711562705,916821718,imu1_frame,0,0,0,,-0.04030371269008258,-0.00883151138810228,-0.7681364297413094,0.6389554291609638,"(0.0, 0.0, 0.0, 0.0, 0.0, 0.0, 0.0, 0.0, 0.0)",0.00012142255606124549,9.965830028887622e-05,1.637118838370681e-05,"(0.0, 0.0, 0.0, 0.0, 0.0, 0.0, 0.0, 0.0, 0.0)",-0.731,0.377,-9.602,"(0.0, 0.0, 0.0, 0.0, 0.0, 0.0, 0.0, 0.0, 0.0)",0,0,0,,3.747e-05,-9.080000000000001e-06,-3.176e-05,"(0.0, 0.0, 0.0, 0.0, 0.0, 0.0, 0.0, 0.0, 0.0)",
1711562705.9449632,1924,1711562705,941851377,imu1_frame,0,0,0,,-0.040295974594550005,-0.008813285917939095,-0.7681423611957342,0.6389490381551929,"(0.0, 0.0, 0.0, 0.0, 0.0, 0.0, 0.0, 0.0, 0.0)",-0.00012767083478338521,-2.6494098045273923e-05,1.7732545200262387e-05,"(0.0, 0.0, 0.0, 0.0, 0.0, 0.0, 0.0, 0.0, 0.0)",-0.666,0.546,-9.645,"(0.0, 0.0, 0.0, 0.0, 0.0, 0.0, 0.0, 0.0, 0.0)",0,0,0,,3.736e-05,-9.080000000000001e-06,-3.0430000000000002e-05,"(0.0, 0.0, 0.0, 0.0, 0.0, 0.0, 0.0, 0.0, 0.0)",
1711562705.969941,1925,1711562705,967559337,imu1_frame,0,0,0,,-0.040266821306669656,-0.008835216708185947,-0.7681310405357158,0.6389641825744966,"(0.0, 0.0, 0.0, 0.0, 0.0, 0.0, 0.0, 0.0, 0.0)",4.0439278768708614e-05,-7.110471372624899e-05,-2.202605516016844e-05,"(0.0, 0.0, 0.0, 0.0, 0.0, 0.0, 0.0, 0.0, 0.0)",-0.768,0.179,-9.732,"(0.0, 0.0, 0.0, 0.0, 0.0, 0.0, 0.0, 0.0, 0.0)",0,0,0,,3.7159999999999997e-05,-7.889999999999999e-06,-3.113e-05,"(0.0, 0.0, 0.0, 0.0, 0.0, 0.0, 0.0, 0.0, 0.0)",
1711562705.997627,1926,1711562705,993606328,imu1_frame,0,0,0,,-0.04027469170861476,-0.00878459316198507,-0.768137418277003,0.6389567174492298,"(0.0, 0.0, 0.0, 0.0, 0.0, 0.0, 0.0, 0.0, 0.0)",6.398377037811212e-05,-5.288347633542818e-06,2.750638901143063e-05,"(0.0, 0.0, 0.0, 0.0, 0.0, 0.0, 0.0, 0.0, 0.0)",-0.722,0.462,-9.627,"(0.0, 0.0, 0.0, 0.0, 0.0, 0.0, 0.0, 0.0, 0.0)",0,0,0,,3.739e-05,-7.66e-06,-3.0980000000000005e-05,"(0.0, 0.0, 0.0, 0.0, 0.0, 0.0, 0.0, 0.0, 0.0)",
1711562706.0214138,1927,1711562706,19014120,imu1_frame,0,0,0,,-0.04026687668713165,-0.00876671931868648,-0.7681377725135791,0.6389570296288534,"(0.0, 0.0, 0.0, 0.0, 0.0, 0.0, 0.0, 0.0, 0.0)",-0.0001026777198948264,1.5812683023068626e-05,-2.071705822117269e-05,"(0.0, 0.0, 0.0, 0.0, 0.0, 0.0, 0.0, 0.0, 0.0)",-0.69,0.524,-9.693,"(0.0, 0.0, 0.0, 0.0, 0.0, 0.0, 0.0, 0.0, 0.0)",0,0,0,,3.7380000000000005e-05,-7.889999999999999e-06,-3.205e-05,"(0.0, 0.0, 0.0, 0.0, 0.0, 0.0, 0.0, 0.0, 0.0)",
1711562706.0452566,1928,1711562706,42982816,imu1_frame,0,0,0,,-0.04024345331953341,-0.008781243828452715,-0.7681376815995382,0.6389584151794466,"(0.0, 0.0, 0.0, 0.0, 0.0, 0.0, 0.0, 0.0, 0.0)",9.622000166244738e-05,-0.00010042624515975371,-1.4206980111233842e-05,"(0.0, 0.0, 0.0, 0.0, 0.0, 0.0, 0.0, 0.0, 0.0)",-0.7,0.184,-9.693,"(0.0, 0.0, 0.0, 0.0, 0.0, 0.0, 0.0, 0.0, 0.0)",0,0,0,,3.714e-05,-9.07e-06,-3.0180000000000002e-05,"(0.0, 0.0, 0.0, 0.0, 0.0, 0.0, 0.0, 0.0, 0.0)",
1711562706.0695844,1929,1711562706,67164659,imu1_frame,0,0,0,,-0.040264561323945916,-0.008742493572083308,-0.7681326266006584,0.6389636936940204,"(0.0, 0.0, 0.0, 0.0, 0.0, 0.0, 0.0, 0.0, 0.0)",9.974556675147592e-05,-4.47502420211346e-05,8.342673824532894e-06,"(0.0, 0.0, 0.0, 0.0, 0.0, 0.0, 0.0, 0.0, 0.0)",-0.665,0.533,-9.594,"(0.0, 0.0, 0.0, 0.0, 0.0, 0.0, 0.0, 0.0, 0.0)",0,0,0,,3.735e-05,-9.55e-06,-3.136e-05,"(0.0, 0.0, 0.0, 0.0, 0.0, 0.0, 0.0, 0.0, 0.0)",
1711562706.0937781,1930,1711562706,91758012,imu1_frame,0,0,0,,-0.04027125676167934,-0.008748078924318168,-0.7681324880443846,0.6389633618641307,"(0.0, 0.0, 0.0, 0.0, 0.0, 0.0, 0.0, 0.0, 0.0)",-0.0001638340568847077,-0.00010128145649323095,5.393067388662478e-06,"(0.0, 0.0, 0.0, 0.0, 0.0, 0.0, 0.0, 0.0, 0.0)",-0.669,0.554,-9.651,"(0.0, 0.0, 0.0, 0.0, 0.0, 0.0, 0.0, 0.0, 0.0)",0,0,0,,3.704e-05,-8.599999999999999e-06,-3.0059999999999997e-05,"(0.0, 0.0, 0.0, 0.0, 0.0, 0.0, 0.0, 0.0, 0.0)",
1711562706.1193035,1931,1711562706,117144823,imu1_frame,0,0,0,,-0.04024887613131166,-0.008775243039037395,-0.7681266061621065,0.6389714704004055,"(0.0, 0.0, 0.0, 0.0, 0.0, 0.0, 0.0, 0.0, 0.0)",7.705628647554964e-05,6.5100781099388495e-06,-1.890191579909859e-05,"(0.0, 0.0, 0.0, 0.0, 0.0, 0.0, 0.0, 0.0, 0.0)",-0.699,0.186,-9.691,"(0.0, 0.0, 0.0, 0.0, 0.0, 0.0, 0.0, 0.0, 0.0)",0,0,0,,3.693e-05,-8.24e-06,-3.0869999999999994e-05,"(0.0, 0.0, 0.0, 0.0, 0.0, 0.0, 0.0, 0.0, 0.0)",
1711562706.1435227,1932,1711562706,141933917,imu1_frame,0,0,0,,-0.040264485029763916,-0.008742844946333898,-0.7681270505612823,0.6389703968914033,"(0.0, 0.0, 0.0, 0.0, 0.0, 0.0, 0.0, 0.0, 0.0)",9.962339370383633e-05,-4.279547325890096e-05,7.2605696882964104e-06,"(0.0, 0.0, 0.0, 0.0, 0.0, 0.0, 0.0, 0.0, 0.0)",-0.643,0.524,-9.602,"(0.0, 0.0, 0.0, 0.0, 0.0, 0.0, 0.0, 0.0, 0.0)",0,0,0,,3.757e-05,-9.55e-06,-3.095e-05,"(0.0, 0.0, 0.0, 0.0, 0.0, 0.0, 0.0, 0.0, 0.0)",
1711562706.1704953,1933,1711562706,167688369,imu1_frame,0,0,0,,-0.04026776637496518,-0.008780062084480195,-0.7681208290382191,0.6389771588238526,"(0.0, 0.0, 0.0, 0.0, 0.0, 0.0, 0.0, 0.0, 0.0)",-0.00010705849631733215,4.363323129985824e-06,4.118977034706617e-06,"(0.0, 0.0, 0.0, 0.0, 0.0, 0.0, 0.0, 0.0, 0.0)",-0.668,0.391,-9.653,"(0.0, 0.0, 0.0, 0.0, 0.0, 0.0, 0.0, 0.0, 0.0)",0,0,0,,3.7369999999999996e-05,-8.599999999999999e-06,-3.164e-05,"(0.0, 0.0, 0.0, 0.0, 0.0, 0.0, 0.0, 0.0, 0.0)",
1711562706.1965954,1934,1711562706,193957090,imu1_frame,0,0,0,,-0.04026776637496518,-0.008780062084480195,-0.7681208290382191,0.6389771588238526,"(0.0, 0.0, 0.0, 0.0, 0.0, 0.0, 0.0, 0.0, 0.0)",0.00010805333399096896,3.3702307856010504e-05,-2.2322761133007475e-05,"(0.0, 0.0, 0.0, 0.0, 0.0, 0.0, 0.0, 0.0, 0.0)",-0.727,0.194,-9.577,"(0.0, 0.0, 0.0, 0.0, 0.0, 0.0, 0.0, 0.0, 0.0)",0,0,0,,3.694e-05,-7.889999999999999e-06,-2.98e-05,"(0.0, 0.0, 0.0, 0.0, 0.0, 0.0, 0.0, 0.0, 0.0)",
1711562706.221035,1935,1711562706,218030691,imu1_frame,0,0,0,,-0.0402968426228324,-0.008758483416441115,-0.7681265724582279,0.6389687176430857,"(0.0, 0.0, 0.0, 0.0, 0.0, 0.0, 0.0, 0.0, 0.0)",6.045820528908357e-05,-0.00018650588386811404,-1.1257373675363426e-05,"(0.0, 0.0, 0.0, 0.0, 0.0, 0.0, 0.0, 0.0, 0.0)",-0.661,0.606,-9.58,"(0.0, 0.0, 0.0, 0.0, 0.0, 0.0, 0.0, 0.0, 0.0)",0,0,0,,3.703e-05,-9.07e-06,-3.139e-05,"(0.0, 0.0, 0.0, 0.0, 0.0, 0.0, 0.0, 0.0, 0.0)",
1711562706.2460895,1936,1711562706,243905067,imu1_frame,0,0,0,,-0.04030131990564499,-0.008807637700046236,-0.768125710176182,0.6389687961851841,"(0.0, 0.0, 0.0, 0.0, 0.0, 0.0, 0.0, 0.0, 0.0)",-0.00014919074446047528,-3.029891581462156e-05,-9.913470151327793e-06,"(0.0, 0.0, 0.0, 0.0, 0.0, 0.0, 0.0, 0.0, 0.0)",-0.703,0.337,-9.715,"(0.0, 0.0, 0.0, 0.0, 0.0, 0.0, 0.0, 0.0, 0.0)",0,0,0,,3.668e-05,-9.89e-06,-3.0590000000000004e-05,"(0.0, 0.0, 0.0, 0.0, 0.0, 0.0, 0.0, 0.0, 0.0)",
1711562706.270208,1937,1711562706,267911911,imu1_frame,0,0,0,,-0.040261071032162116,-0.00877447662035392,-0.76812096785192,0.6389774905781986,"(0.0, 0.0, 0.0, 0.0, 0.0, 0.0, 0.0, 0.0, 0.0)",7.283258968572336e-05,4.7630035286925254e-05,2.7471482426390748e-05,"(0.0, 0.0, 0.0, 0.0, 0.0, 0.0, 0.0, 0.0, 0.0)",-0.702,0.231,-9.546,"(0.0, 0.0, 0.0, 0.0, 0.0, 0.0, 0.0, 0.0, 0.0)",0,0,0,,3.66e-05,-8.12e-06,-3.182e-05,"(0.0, 0.0, 0.0, 0.0, 0.0, 0.0, 0.0, 0.0, 0.0)",
1711562706.2954133,1938,1711562706,292496919,imu1_frame,0,0,0,,-0.04029676618911147,-0.008758835072398578,-0.7681209963750097,0.6389754207876364,"(0.0, 0.0, 0.0, 0.0, 0.0, 0.0, 0.0, 0.0, 0.0)",2.424262331020124e-05,-5.061454830783555e-05,-6.667157742618339e-06,"(0.0, 0.0, 0.0, 0.0, 0.0, 0.0, 0.0, 0.0, 0.0)",-0.695,0.587,-9.541,"(0.0, 0.0, 0.0, 0.0, 0.0, 0.0, 0.0, 0.0, 0.0)",0,0,0,,3.68e-05,-9.18e-06,-3.166e-05,"(0.0, 0.0, 0.0, 0.0, 0.0, 0.0, 0.0, 0.0, 0.0)",
1711562706.319828,1939,1711562706,317880153,imu1_frame,0,0,0,,-0.04026323267132975,-0.008799405145018969,-0.7681149605504355,0.6389842329373637,"(0.0, 0.0, 0.0, 0.0, 0.0, 0.0, 0.0, 0.0, 0.0)",1.7383479349863523e-05,3.01941960595019e-05,9.075712110370514e-06,"(0.0, 0.0, 0.0, 0.0, 0.0, 0.0, 0.0, 0.0, 0.0)",-0.75,0.263,-9.746,"(0.0, 0.0, 0.0, 0.0, 0.0, 0.0, 0.0, 0.0, 0.0)",0,0,0,,3.679e-05,-9.77e-06,-3.166e-05,"(0.0, 0.0, 0.0, 0.0, 0.0, 0.0, 0.0, 0.0, 0.0)",
1711562706.3437908,1940,1711562706,342881441,imu1_frame,0,0,0,,-0.04024648475447427,-0.008751368317200607,-0.7681158841729323,0.6389848374560378,"(0.0, 0.0, 0.0, 0.0, 0.0, 0.0, 0.0, 0.0, 0.0)",0.00010929251775988492,-5.965535383316618e-05,1.2967796342317868e-05,"(0.0, 0.0, 0.0, 0.0, 0.0, 0.0, 0.0, 0.0, 0.0)",-0.684,0.332,-9.566,"(0.0, 0.0, 0.0, 0.0, 0.0, 0.0, 0.0, 0.0, 0.0)",0,0,0,,3.692e-05,-8.71e-06,-3.1e-05,"(0.0, 0.0, 0.0, 0.0, 0.0, 0.0, 0.0, 0.0, 0.0)",
1711562706.3707383,1941,1711562706,367454051,imu1_frame,0,0,0,,-0.040268941774612876,-0.008723853185151526,-0.768127341433118,0.6389700259455422,"(0.0, 0.0, 0.0, 0.0, 0.0, 0.0, 0.0, 0.0, 0.0)",-9.562658971676932e-05,0.00010199704148654862,-2.3457225146803788e-05,"(0.0, 0.0, 0.0, 0.0, 0.0, 0.0, 0.0, 0.0, 0.0)",-0.644,0.676,-9.62,"(0.0, 0.0, 0.0, 0.0, 0.0, 0.0, 0.0, 0.0, 0.0)",0,0,0,,3.694e-05,-8e-06,-3.127e-05,"(0.0, 0.0, 0.0, 0.0, 0.0, 0.0, 0.0, 0.0, 0.0)",
1711562706.3943052,1942,1711562706,392406225,imu1_frame,0,0,0,,-0.04024225725890854,-0.008769306453603975,-0.7681323209620898,0.6389650988030751,"(0.0, 0.0, 0.0, 0.0, 0.0, 0.0, 0.0, 0.0, 0.0)",1.0000736613927509e-05,-0.00015414747953613916,-5.2220251219670336e-05,"(0.0, 0.0, 0.0, 0.0, 0.0, 0.0, 0.0, 0.0, 0.0)",-0.762,0.207,-9.715,"(0.0, 0.0, 0.0, 0.0, 0.0, 0.0, 0.0, 0.0, 0.0)",0,0,0,,3.625e-05,-8.939999999999999e-06,-3.103e-05,"(0.0, 0.0, 0.0, 0.0, 0.0, 0.0, 0.0, 0.0, 0.0)",
1711562706.4223251,1943,1711562706,417876243,imu1_frame,0,0,0,,-0.04027675648295071,-0.008741727184820372,-0.7681269883231132,0.6389697136036285,"(0.0, 0.0, 0.0, 0.0, 0.0, 0.0, 0.0, 0.0, 0.0)",8.864527270879199e-05,-3.8589229761594624e-05,3.787364476827695e-06,"(0.0, 0.0, 0.0, 0.0, 0.0, 0.0, 0.0, 0.0, 0.0)",-0.662,0.439,-9.621,"(0.0, 0.0, 0.0, 0.0, 0.0, 0.0, 0.0, 0.0, 0.0)",0,0,0,,3.6620000000000005e-05,-7.41e-06,-3.063e-05,"(0.0, 0.0, 0.0, 0.0, 0.0, 0.0, 0.0, 0.0, 0.0)",
1711562706.4471586,1944,1711562706,443672180,imu1_frame,0,0,0,,-0.04028790860213855,-0.008728320838469944,-0.7681271407780426,0.6389690105442953,"(0.0, 0.0, 0.0, 0.0, 0.0, 0.0, 0.0, 0.0, 0.0)",-0.00018819885324254852,-3.5098571257605966e-05,-2.2444934180647078e-05,"(0.0, 0.0, 0.0, 0.0, 0.0, 0.0, 0.0, 0.0, 0.0)",-0.666,0.559,-9.652,"(0.0, 0.0, 0.0, 0.0, 0.0, 0.0, 0.0, 0.0, 0.0)",0,0,0,,3.685e-05,-6.82e-06,-3.169e-05,"(0.0, 0.0, 0.0, 0.0, 0.0, 0.0, 0.0, 0.0, 0.0)",
1711562706.4726186,1945,1711562706,468798398,imu1_frame,0,0,0,,-0.04026440873251562,-0.00874319631991869,-0.7681214744634098,0.6389771000401262,"(0.0, 0.0, 0.0, 0.0, 0.0, 0.0, 0.0, 0.0, 0.0)",0.00010056587149991326,-3.490658503988659e-05,-6.1784655520599265e-06,"(0.0, 0.0, 0.0, 0.0, 0.0, 0.0, 0.0, 0.0, 0.0)",-0.684,0.178,-9.673,"(0.0, 0.0, 0.0, 0.0, 0.0, 0.0, 0.0, 0.0, 0.0)",0,0,0,,3.67e-05,-8.949999999999999e-06,-3.154e-05,"(0.0, 0.0, 0.0, 0.0, 0.0, 0.0, 0.0, 0.0, 0.0)",
1711562706.4970036,1946,1711562706,494445562,imu1_frame,0,0,0,,-0.040279941867141754,-0.008711149851575744,-0.7681163413405889,0.6389827292791181,"(0.0, 0.0, 0.0, 0.0, 0.0, 0.0, 0.0, 0.0, 0.0)",0.00013267992973660893,-5.878268920716902e-05,1.7889624832941878e-05,"(0.0, 0.0, 0.0, 0.0, 0.0, 0.0, 0.0, 0.0, 0.0)",-0.652,0.52,-9.572,"(0.0, 0.0, 0.0, 0.0, 0.0, 0.0, 0.0, 0.0, 0.0)",0,0,0,,3.614e-05,-9.17e-06,-3.01e-05,"(0.0, 0.0, 0.0, 0.0, 0.0, 0.0, 0.0, 0.0, 0.0)",
1711562706.5221016,1947,1711562706,519575834,imu1_frame,0,0,0,,-0.04028663715012945,-0.008716735384591475,-0.7681162030464698,0.6389823972605531,"(0.0, 0.0, 0.0, 0.0, 0.0, 0.0, 0.0, 0.0, 0.0)",-0.00019662879352968116,3.452261260444784e-05,-6.562437987498679e-06,"(0.0, 0.0, 0.0, 0.0, 0.0, 0.0, 0.0, 0.0, 0.0)",-0.701,0.55,-9.646,"(0.0, 0.0, 0.0, 0.0, 0.0, 0.0, 0.0, 0.0, 0.0)",0,0,0,,3.647e-05,-9.18e-06,-3.141e-05,"(0.0, 0.0, 0.0, 0.0, 0.0, 0.0, 0.0, 0.0, 0.0)",
1711562706.5456264,1948,1711562706,543467760,imu1_frame,0,0,0,,-0.040288799081783566,-0.008741664185682363,-0.7681101976321142,0.6389891393986026,"(0.0, 0.0, 0.0, 0.0, 0.0, 0.0, 0.0, 0.0, 0.0)",4.452334921837535e-05,-8.684758357923785e-05,-2.431243648028101e-05,"(0.0, 0.0, 0.0, 0.0, 0.0, 0.0, 0.0, 0.0, 0.0)",-0.682,0.171,-9.653,"(0.0, 0.0, 0.0, 0.0, 0.0, 0.0, 0.0, 0.0, 0.0)",0,0,0,,3.616e-05,-7.99e-06,-3.091e-05,"(0.0, 0.0, 0.0, 0.0, 0.0, 0.0, 0.0, 0.0, 0.0)",
1711562706.5704265,1949,1711562706,568075656,imu1_frame,0,0,0,,-0.04031884199678703,-0.008733078133994753,-0.7681045730842734,0.638994122925532,"(0.0, 0.0, 0.0, 0.0, 0.0, 0.0, 0.0, 0.0, 0.0)",0.00010766936155553019,-5.305800926062762e-06,1.7767451785302275e-05,"(0.0, 0.0, 0.0, 0.0, 0.0, 0.0, 0.0, 0.0, 0.0)",-0.625,0.554,-9.606,"(0.0, 0.0, 0.0, 0.0, 0.0, 0.0, 0.0, 0.0, 0.0)",0,0,0,,3.628e-05,-7.76e-06,-3.131e-05,"(0.0, 0.0, 0.0, 0.0, 0.0, 0.0, 0.0, 0.0, 0.0)",
1711562706.5951908,1950,1711562706,592889785,imu1_frame,0,0,0,,-0.04030203676845125,-0.00875353876365134,-0.7680987678754675,0.6390018812019386,"(0.0, 0.0, 0.0, 0.0, 0.0, 0.0, 0.0, 0.0, 0.0)",-0.00014627604460964473,4.569271981721155e-05,4.160864936754481e-05,"(0.0, 0.0, 0.0, 0.0, 0.0, 0.0, 0.0, 0.0, 0.0)",-0.635,0.418,-9.686,"(0.0, 0.0, 0.0, 0.0, 0.0, 0.0, 0.0, 0.0, 0.0)",0,0,0,,3.651e-05,-7.049999999999999e-06,-3.197e-05,"(0.0, 0.0, 0.0, 0.0, 0.0, 0.0, 0.0, 0.0, 0.0)",
1711562706.6203046,1951,1711562706,617697238,imu1_frame,0,0,0,,-0.040269679872426176,-0.008737898877521669,-0.7680992457687666,0.6390035607534831,"(0.0, 0.0, 0.0, 0.0, 0.0, 0.0, 0.0, 0.0, 0.0)",8.381071068076769e-05,7.075564787585012e-05,-1.0262536001726657e-05,"(0.0, 0.0, 0.0, 0.0, 0.0, 0.0, 0.0, 0.0, 0.0)",-0.705,0.255,-9.562,"(0.0, 0.0, 0.0, 0.0, 0.0, 0.0, 0.0, 0.0, 0.0)",0,0,0,,3.636e-05,-9.06e-06,-3.129e-05,"(0.0, 0.0, 0.0, 0.0, 0.0, 0.0, 0.0, 0.0, 0.0)",
1711562706.6429782,1952,1711562706,642549753,imu1_frame,0,0,0,,-0.04026520472618165,-0.008688744308576229,-0.7681001029067889,0.6390034827176446,"(0.0, 0.0, 0.0, 0.0, 0.0, 0.0, 0.0, 0.0, 0.0)",2.7087509990951992e-05,4.331907203449925e-05,1.3194689145077132e-05,"(0.0, 0.0, 0.0, 0.0, 0.0, 0.0, 0.0, 0.0, 0.0)",-0.637,0.589,-9.563,"(0.0, 0.0, 0.0, 0.0, 0.0, 0.0, 0.0, 0.0, 0.0)",0,0,0,,3.594e-05,-7.75e-06,-3.119e-05,"(0.0, 0.0, 0.0, 0.0, 0.0, 0.0, 0.0, 0.0, 0.0)",
1711562706.6700017,1953,1711562706,667422533,imu1_frame,0,0,0,,-0.04020272828004312,-0.00868204180091056,-0.7681006274531342,0.6390068770327199,"(0.0, 0.0, 0.0, 0.0, 0.0, 0.0, 0.0, 0.0, 0.0)",-0.00011295770918907301,0.00016111134325159655,-7.15584993317675e-07,"(0.0, 0.0, 0.0, 0.0, 0.0, 0.0, 0.0, 0.0, 0.0)",-0.725,0.343,-9.732,"(0.0, 0.0, 0.0, 0.0, 0.0, 0.0, 0.0, 0.0, 0.0)",0,0,0,,3.648e-05,-8.82e-06,-3.1280000000000005e-05,"(0.0, 0.0, 0.0, 0.0, 0.0, 0.0, 0.0, 0.0, 0.0)",
1711562706.6946216,1954,1711562706,692429065,imu1_frame,0,0,0,,-0.04021716143873397,-0.008705852830653183,-0.7680945612108184,0.6390129365597084,"(0.0, 0.0, 0.0, 0.0, 0.0, 0.0, 0.0, 0.0, 0.0)",0.00010239846721450732,-5.5623643261059286e-05,-1.0122909661567112e-05,"(0.0, 0.0, 0.0, 0.0, 0.0, 0.0, 0.0, 0.0, 0.0)",-0.664,0.195,-9.569,"(0.0, 0.0, 0.0, 0.0, 0.0, 0.0, 0.0, 0.0, 0.0)",0,0,0,,3.613e-05,-9.41e-06,-3.1559999999999996e-05,"(0.0, 0.0, 0.0, 0.0, 0.0, 0.0, 0.0, 0.0, 0.0)",
1711562706.719581,1955,1711562706,717492341,imu1_frame,0,0,0,,-0.040231728964891446,-0.008660815741209034,-0.7681007923353762,0.6390051416608161,"(0.0, 0.0, 0.0, 0.0, 0.0, 0.0, 0.0, 0.0, 0.0)",-9.26769832808989e-06,-5.489060497522166e-05,-2.2863813201125718e-06,"(0.0, 0.0, 0.0, 0.0, 0.0, 0.0, 0.0, 0.0, 0.0)",-0.663,0.582,-9.567,"(0.0, 0.0, 0.0, 0.0, 0.0, 0.0, 0.0, 0.0, 0.0)",0,0,0,,3.5959999999999995e-05,-6.69e-06,-3.12e-05,"(0.0, 0.0, 0.0, 0.0, 0.0, 0.0, 0.0, 0.0, 0.0)",
1711562706.7456534,1956,1711562706,743335008,imu1_frame,0,0,0,,-0.04019603310395753,-0.008676456089605966,-0.768100765299853,0.6390072083929966,"(0.0, 0.0, 0.0, 0.0, 0.0, 0.0, 0.0, 0.0, 0.0)",-7.209955139988575e-05,-6.562437987498679e-06,2.1956241990088664e-05,"(0.0, 0.0, 0.0, 0.0, 0.0, 0.0, 0.0, 0.0, 0.0)",-0.678,0.308,-9.673,"(0.0, 0.0, 0.0, 0.0, 0.0, 0.0, 0.0, 0.0, 0.0)",0,0,0,,3.638e-05,-8.229999999999999e-06,-3.103e-05,"(0.0, 0.0, 0.0, 0.0, 0.0, 0.0, 0.0, 0.0, 0.0)",
1711562706.7698941,1957,1711562706,768044471,imu1_frame,0,0,0,,-0.0401925259437641,-0.008640291600162798,-0.7680902520405064,0.639020555960194,"(0.0, 0.0, 0.0, 0.0, 0.0, 0.0, 0.0, 0.0, 0.0)",0.00010164797563614975,-2.719222974607165e-05,1.610938899590766e-05,"(0.0, 0.0, 0.0, 0.0, 0.0, 0.0, 0.0, 0.0, 0.0)",-0.666,0.317,-9.563,"(0.0, 0.0, 0.0, 0.0, 0.0, 0.0, 0.0, 0.0, 0.0)",0,0,0,,3.637e-05,-8.580000000000001e-06,-3.103e-05,"(0.0, 0.0, 0.0, 0.0, 0.0, 0.0, 0.0, 0.0, 0.0)",
1711562706.7959833,1958,1711562706,793020725,imu1_frame,0,0,0,,-0.040217069093906765,-0.008638057566617936,-0.7680901278231081,0.6390191913046532,"(0.0, 0.0, 0.0, 0.0, 0.0, 0.0, 0.0, 0.0, 0.0)",-9.318312876397726e-05,3.230604445441504e-05,6.230825429619757e-06,"(0.0, 0.0, 0.0, 0.0, 0.0, 0.0, 0.0, 0.0, 0.0)",-0.703,0.579,-9.532,"(0.0, 0.0, 0.0, 0.0, 0.0, 0.0, 0.0, 0.0, 0.0)",0,0,0,,3.603e-05,-9.17e-06,-2.9299999999999997e-05,"(0.0, 0.0, 0.0, 0.0, 0.0, 0.0, 0.0, 0.0, 0.0)",
1711562706.8224678,1959,1711562706,818708181,imu1_frame,0,0,0,,-0.04019476309166626,-0.00866486896471504,-0.7680898258300699,0.6390205947558826,"(0.0, 0.0, 0.0, 0.0, 0.0, 0.0, 0.0, 0.0, 0.0)",-8.21177413063332e-05,5.480333851262194e-05,-8.587019919812101e-06,"(0.0, 0.0, 0.0, 0.0, 0.0, 0.0, 0.0, 0.0, 0.0)",-0.768,0.274,-9.684,"(0.0, 0.0, 0.0, 0.0, 0.0, 0.0, 0.0, 0.0, 0.0)",0,0,0,,3.649e-05,-8.229999999999999e-06,-3.116e-05,"(0.0, 0.0, 0.0, 0.0, 0.0, 0.0, 0.0, 0.0, 0.0)",
1711562706.845766,1960,1711562706,843804121,imu1_frame,0,0,0,,-0.04019802710477274,-0.008633939542200238,-0.7680847508794977,0.6390269080181565,"(0.0, 0.0, 0.0, 0.0, 0.0, 0.0, 0.0, 0.0, 0.0)",0.0001164658209855816,-1.553343034274953e-06,1.58824961931484e-05,"(0.0, 0.0, 0.0, 0.0, 0.0, 0.0, 0.0, 0.0, 0.0)",-0.658,0.291,-9.569,"(0.0, 0.0, 0.0, 0.0, 0.0, 0.0, 0.0, 0.0, 0.0)",0,0,0,,3.615e-05,-8.580000000000001e-06,-3.09e-05,"(0.0, 0.0, 0.0, 0.0, 0.0, 0.0, 0.0, 0.0, 0.0)",
1711562706.870574,1961,1711562706,868293046,imu1_frame,0,0,0,,-0.04022814681083478,-0.008625002920755706,-0.7680847019511106,0.6390251921148777,"(0.0, 0.0, 0.0, 0.0, 0.0, 0.0, 0.0, 0.0, 0.0)",-6.368706440527308e-05,-4.886921905584122e-06,1.4014993893514464e-05,"(0.0, 0.0, 0.0, 0.0, 0.0, 0.0, 0.0, 0.0, 0.0)",-0.737,0.616,-9.498,"(0.0, 0.0, 0.0, 0.0, 0.0, 0.0, 0.0, 0.0, 0.0)",0,0,0,,3.6049999999999995e-05,-7.75e-06,-2.958e-05,"(0.0, 0.0, 0.0, 0.0, 0.0, 0.0, 0.0, 0.0, 0.0)",
1711562706.8950608,1962,1711562706,893275022,imu1_frame,0,0,0,,-0.04019565448387844,-0.008678209964155791,-0.7680728826193581,0.6390407225030502,"(0.0, 0.0, 0.0, 0.0, 0.0, 0.0, 0.0, 0.0, 0.0)",-1.603957582582789e-05,-5.216789134211051e-05,7.958701389094142e-06,"(0.0, 0.0, 0.0, 0.0, 0.0, 0.0, 0.0, 0.0, 0.0)",-0.774,0.222,-9.677,"(0.0, 0.0, 0.0, 0.0, 0.0, 0.0, 0.0, 0.0, 0.0)",0,0,0,,3.638e-05,-8.229999999999999e-06,-3.1559999999999996e-05,"(0.0, 0.0, 0.0, 0.0, 0.0, 0.0, 0.0, 0.0, 0.0)",
1711562706.9207711,1963,1711562706,918078422,imu1_frame,0,0,0,,-0.04019110617070221,-0.008629405851833782,-0.7680681583313619,0.6390473476174436,"(0.0, 0.0, 0.0, 0.0, 0.0, 0.0, 0.0, 0.0, 0.0)",0.00011531390367926536,1.8099064343181198e-05,4.427900312309614e-05,"(0.0, 0.0, 0.0, 0.0, 0.0, 0.0, 0.0, 0.0, 0.0)",-0.701,0.397,-9.6,"(0.0, 0.0, 0.0, 0.0, 0.0, 0.0, 0.0, 0.0, 0.0)",0,0,0,,3.625e-05,-8.82e-06,-3.116e-05,"(0.0, 0.0, 0.0, 0.0, 0.0, 0.0, 0.0, 0.0, 0.0)",
1711562706.9475634,1964,1711562706,943677186,imu1_frame,0,0,0,,-0.04022226893462546,-0.008633109751229197,-0.7680623199871108,0.6390523539693684,"(0.0, 0.0, 0.0, 0.0, 0.0, 0.0, 0.0, 0.0, 0.0)",-0.00012604767857903049,6.134832320760068e-05,-9.494591130849153e-06,"(0.0, 0.0, 0.0, 0.0, 0.0, 0.0, 0.0, 0.0, 0.0)",-0.679,0.585,-9.569,"(0.0, 0.0, 0.0, 0.0, 0.0, 0.0, 0.0, 0.0, 0.0)",0,0,0,,3.581e-05,-8.69e-06,-3.065e-05,"(0.0, 0.0, 0.0, 0.0, 0.0, 0.0, 0.0, 0.0, 0.0)",
1711562706.9714289,1965,1711562706,968886375,imu1_frame,0,0,0,,-0.040180995297927846,-0.008655450537597217,-0.7680622178284964,0.6390547709995055,"(0.0, 0.0, 0.0, 0.0, 0.0, 0.0, 0.0, 0.0, 0.0)",-5.7944931166211735e-06,2.336995868420407e-05,-3.24107642095347e-05,"(0.0, 0.0, 0.0, 0.0, 0.0, 0.0, 0.0, 0.0, 0.0)",-0.768,0.176,-9.655,"(0.0, 0.0, 0.0, 0.0, 0.0, 0.0, 0.0, 0.0, 0.0)",0,0,0,,3.618e-05,-6.93e-06,-3.0919999999999995e-05,"(0.0, 0.0, 0.0, 0.0, 0.0, 0.0, 0.0, 0.0, 0.0)",
1711562706.9971037,1966,1711562706,994183778,imu1_frame,0,0,0,,-0.040208954523373364,-0.008621586603970966,-0.768068171523007,0.6390463145296061,"(0.0, 0.0, 0.0, 0.0, 0.0, 0.0, 0.0, 0.0, 0.0)",0.0001352106571520007,-7.222172444752536e-05,8.831366015091308e-06,"(0.0, 0.0, 0.0, 0.0, 0.0, 0.0, 0.0, 0.0, 0.0)",-0.692,0.442,-9.603,"(0.0, 0.0, 0.0, 0.0, 0.0, 0.0, 0.0, 0.0, 0.0)",0,0,0,,3.617e-05,-7.3999999999999995e-06,-3.065e-05,"(0.0, 0.0, 0.0, 0.0, 0.0, 0.0, 0.0, 0.0, 0.0)",
1711562707.0221918,1967,1711562707,19138574,imu1_frame,0,0,0,,-0.04020999732273707,-0.008634226231468483,-0.7680623820855239,0.6390530365140283,"(0.0, 0.0, 0.0, 0.0, 0.0, 0.0, 0.0, 0.0, 0.0)",-0.00012835151319166298,2.5586526834236872e-05,4.031710572106901e-06,"(0.0, 0.0, 0.0, 0.0, 0.0, 0.0, 0.0, 0.0, 0.0)",-0.623,0.609,-9.664,"(0.0, 0.0, 0.0, 0.0, 0.0, 0.0, 0.0, 0.0, 0.0)",0,0,0,,3.64e-05,-7.049999999999999e-06,-3.104e-05,"(0.0, 0.0, 0.0, 0.0, 0.0, 0.0, 0.0, 0.0, 0.0)",
1711562707.0492053,1968,1711562707,45295715,imu1_frame,0,0,0,,-0.04018323137276091,-0.008680027992297504,-0.76806179118741,0.639054809815624,"(0.0, 0.0, 0.0, 0.0, 0.0, 0.0, 0.0, 0.0, 0.0)",7.621852843459237e-05,-0.00013372712728780556,-3.1415926535897938e-06,"(0.0, 0.0, 0.0, 0.0, 0.0, 0.0, 0.0, 0.0, 0.0)",-0.694,0.163,-9.674,"(0.0, 0.0, 0.0, 0.0, 0.0, 0.0, 0.0, 0.0, 0.0)",0,0,0,,3.65e-05,-7.64e-06,-3.196e-05,"(0.0, 0.0, 0.0, 0.0, 0.0, 0.0, 0.0, 0.0, 0.0)",
1711562707.075149,1969,1711562707,70973396,imu1_frame,0,0,0,,-0.04019095555303615,-0.00863010731765211,-0.768057004734087,0.6390607528383531,"(0.0, 0.0, 0.0, 0.0, 0.0, 0.0, 0.0, 0.0, 0.0)",4.571017310973149e-05,2.617993877991494e-06,1.5201817784870611e-05,"(0.0, 0.0, 0.0, 0.0, 0.0, 0.0, 0.0, 0.0, 0.0)",-0.68,0.537,-9.594,"(0.0, 0.0, 0.0, 0.0, 0.0, 0.0, 0.0, 0.0, 0.0)",0,0,0,,3.616e-05,-8.229999999999999e-06,-3.184e-05,"(0.0, 0.0, 0.0, 0.0, 0.0, 0.0, 0.0, 0.0, 0.0)",
1711562707.100775,1970,1711562707,96810817,imu1_frame,0,0,0,,-0.04019988620119567,-0.00866027098916905,-0.7680564413414716,0.6390604601832911,"(0.0, 0.0, 0.0, 0.0, 0.0, 0.0, 0.0, 0.0, 0.0)",-0.00018865263884806707,5.55538300909795e-05,-1.832595714594046e-06,"(0.0, 0.0, 0.0, 0.0, 0.0, 0.0, 0.0, 0.0, 0.0)",-0.689,0.487,-9.713,"(0.0, 0.0, 0.0, 0.0, 0.0, 0.0, 0.0, 0.0, 0.0)",0,0,0,,3.617e-05,-7.280000000000001e-06,-3.0120000000000003e-05,"(0.0, 0.0, 0.0, 0.0, 0.0, 0.0, 0.0, 0.0, 0.0)",
1711562707.1242716,1971,1711562707,122164726,imu1_frame,0,0,0,,-0.040195427275098054,-0.008679262280955308,-0.7680561523091527,0.6390608303850976,"(0.0, 0.0, 0.0, 0.0, 0.0, 0.0, 0.0, 0.0, 0.0)",3.337069529813158e-05,1.7907078125461822e-05,-7.88888821901437e-06,"(0.0, 0.0, 0.0, 0.0, 0.0, 0.0, 0.0, 0.0, 0.0)",-0.679,0.121,-9.564,"(0.0, 0.0, 0.0, 0.0, 0.0, 0.0, 0.0, 0.0, 0.0)",0,0,0,,3.583e-05,-7.630000000000001e-06,-3.227e-05,"(0.0, 0.0, 0.0, 0.0, 0.0, 0.0, 0.0, 0.0, 0.0)",
1711562707.1484373,1972,1711562707,146612405,imu1_frame,0,0,0,,-0.04019095555303615,-0.00863010731765211,-0.768057004734087,0.6390607528383531,"(0.0, 0.0, 0.0, 0.0, 0.0, 0.0, 0.0, 0.0, 0.0)",7.527605063851542e-05,-2.035053907825388e-05,1.5062191444711064e-05,"(0.0, 0.0, 0.0, 0.0, 0.0, 0.0, 0.0, 0.0, 0.0)",-0.71,0.568,-9.57,"(0.0, 0.0, 0.0, 0.0, 0.0, 0.0, 0.0, 0.0, 0.0)",0,0,0,,3.6270000000000003e-05,-7.99e-06,-3.0240000000000002e-05,"(0.0, 0.0, 0.0, 0.0, 0.0, 0.0, 0.0, 0.0, 0.0)",
1711562707.1755114,1973,1711562707,170810461,imu1_frame,0,0,0,,-0.040193115886840575,-0.008655035558176502,-0.7680510020638657,0.6390674941064406,"(0.0, 0.0, 0.0, 0.0, 0.0, 0.0, 0.0, 0.0, 0.0)",-0.00015988961277520054,-2.0647245051092916e-05,-1.2217304763960308e-07,"(0.0, 0.0, 0.0, 0.0, 0.0, 0.0, 0.0, 0.0, 0.0)",-0.693,0.421,-9.668,"(0.0, 0.0, 0.0, 0.0, 0.0, 0.0, 0.0, 0.0, 0.0)",0,0,0,,3.619e-05,-6.57e-06,-3.053e-05,"(0.0, 0.0, 0.0, 0.0, 0.0, 0.0, 0.0, 0.0, 0.0)",
1711562707.1988688,1974,1711562707,196793079,imu1_frame,0,0,0,,-0.04018642114607675,-0.008649449316668032,-0.7680511396115897,0.6390678254483847,"(0.0, 0.0, 0.0, 0.0, 0.0, 0.0, 0.0, 0.0, 0.0)",5.818927726149095e-05,6.318091892219473e-05,1.2095131716320704e-05,"(0.0, 0.0, 0.0, 0.0, 0.0, 0.0, 0.0, 0.0, 0.0)",-0.724,0.252,-9.558,"(0.0, 0.0, 0.0, 0.0, 0.0, 0.0, 0.0, 0.0, 0.0)",0,0,0,,3.638e-05,-7.879999999999999e-06,-3.143e-05,"(0.0, 0.0, 0.0, 0.0, 0.0, 0.0, 0.0, 0.0, 0.0)",
1711562707.2237015,1975,1711562707,221679925,imu1_frame,0,0,0,,-0.04022888836681599,-0.008639046942982356,-0.768056605701428,0.6390587248814373,"(0.0, 0.0, 0.0, 0.0, 0.0, 0.0, 0.0, 0.0, 0.0)",-3.899065548955332e-05,-0.00010103711039795174,-2.6179938779914946e-07,"(0.0, 0.0, 0.0, 0.0, 0.0, 0.0, 0.0, 0.0, 0.0)",-0.696,0.598,-9.514,"(0.0, 0.0, 0.0, 0.0, 0.0, 0.0, 0.0, 0.0, 0.0)",0,0,0,,3.625e-05,-8.82e-06,-3.1830000000000005e-05,"(0.0, 0.0, 0.0, 0.0, 0.0, 0.0, 0.0, 0.0, 0.0)",
1711562707.2485526,1976,1711562707,245062351,imu1_frame,0,0,0,,-0.040180844225697815,-0.008656151826943561,-0.7680510641016598,0.6390681761167325,"(0.0, 0.0, 0.0, 0.0, 0.0, 0.0, 0.0, 0.0, 0.0)",-9.360200778445589e-05,0.00012280136617032103,1.53588974175501e-06,"(0.0, 0.0, 0.0, 0.0, 0.0, 0.0, 0.0, 0.0, 0.0)",-0.758,0.32,-9.701,"(0.0, 0.0, 0.0, 0.0, 0.0, 0.0, 0.0, 0.0, 0.0)",0,0,0,,3.618e-05,-7.04e-06,-3.0919999999999995e-05,"(0.0, 0.0, 0.0, 0.0, 0.0, 0.0, 0.0, 0.0, 0.0)",
1711562707.2735631,1977,1711562707,270048856,imu1_frame,0,0,0,,-0.04021877699651374,-0.008665091772614817,-0.7680506647161874,0.6390661488378957,"(0.0, 0.0, 0.0, 0.0, 0.0, 0.0, 0.0, 0.0, 0.0)",0.00010503391438501875,-0.00010442304914682073,1.2269664641520135e-05,"(0.0, 0.0, 0.0, 0.0, 0.0, 0.0, 0.0, 0.0, 0.0)",-0.743,0.295,-9.549,"(0.0, 0.0, 0.0, 0.0, 0.0, 0.0, 0.0, 0.0, 0.0)",0,0,0,,3.6259999999999995e-05,-8.580000000000001e-06,-3.197e-05,"(0.0, 0.0, 0.0, 0.0, 0.0, 0.0, 0.0, 0.0, 0.0)",
1711562707.297637,1978,1711562707,294882297,imu1_frame,0,0,0,,-0.04026116872181602,-0.008655040474151058,-0.7680505539277365,0.6390637489162105,"(0.0, 0.0, 0.0, 0.0, 0.0, 0.0, 0.0, 0.0, 0.0)",-5.4820791805141893e-05,-3.2724923474893676e-05,3.6826447217080357e-06,"(0.0, 0.0, 0.0, 0.0, 0.0, 0.0, 0.0, 0.0, 0.0)",-0.702,0.631,-9.534,"(0.0, 0.0, 0.0, 0.0, 0.0, 0.0, 0.0, 0.0, 0.0)",0,0,0,,3.651e-05,-7.2900000000000005e-06,-2.983e-05,"(0.0, 0.0, 0.0, 0.0, 0.0, 0.0, 0.0, 0.0, 0.0)",
1711562707.3211405,1979,1711562707,319016695,imu1_frame,0,0,0,,-0.04022101264171127,-0.008689669258888182,-0.7680502376454654,0.6390661876855873,"(0.0, 0.0, 0.0, 0.0, 0.0, 0.0, 0.0, 0.0, 0.0)",-2.118829711921116e-05,-5.092870757319454e-05,-1.598721594826806e-05,"(0.0, 0.0, 0.0, 0.0, 0.0, 0.0, 0.0, 0.0, 0.0)",-0.757,0.244,-9.685,"(0.0, 0.0, 0.0, 0.0, 0.0, 0.0, 0.0, 0.0, 0.0)",0,0,0,,3.652e-05,-6.809999999999999e-06,-3.0109999999999998e-05,"(0.0, 0.0, 0.0, 0.0, 0.0, 0.0, 0.0, 0.0, 0.0)",
1711562707.3464487,1980,1711562707,343986988,imu1_frame,0,0,0,,-0.040283412579942675,-0.008696728219110425,-0.768044136208186,0.6390694942065521,"(0.0, 0.0, 0.0, 0.0, 0.0, 0.0, 0.0, 0.0, 0.0)",0.0001299223095184579,-2.0210912738094335e-05,3.673918075448064e-05,"(0.0, 0.0, 0.0, 0.0, 0.0, 0.0, 0.0, 0.0, 0.0)",-0.7,0.359,-9.588,"(0.0, 0.0, 0.0, 0.0, 0.0, 0.0, 0.0, 0.0, 0.0)",0,0,0,,3.6530000000000004e-05,-6.3399999999999994e-06,-3.265e-05,"(0.0, 0.0, 0.0, 0.0, 0.0, 0.0, 0.0, 0.0, 0.0)",
1711562707.3716278,1981,1711562707,368594884,imu1_frame,0,0,0,,-0.040282370649589665,-0.008684087942144954,-0.768049926969432,0.6390627722796192,"(0.0, 0.0, 0.0, 0.0, 0.0, 0.0, 0.0, 0.0, 0.0)",-7.408922674715929e-05,0.0001325926632740092,1.31423292675173e-05,"(0.0, 0.0, 0.0, 0.0, 0.0, 0.0, 0.0, 0.0, 0.0)",-0.718,0.569,-9.557,"(0.0, 0.0, 0.0, 0.0, 0.0, 0.0, 0.0, 0.0, 0.0)",0,0,0,,3.66e-05,-8.12e-06,-3.195e-05,"(0.0, 0.0, 0.0, 0.0, 0.0, 0.0, 0.0, 0.0, 0.0)",
1711562707.3959641,1982,1711562707,393602132,imu1_frame,0,0,0,,-0.04027457035818191,-0.008734359131073467,-0.7680491324284126,0.6390635337186716,"(0.0, 0.0, 0.0, 0.0, 0.0, 0.0, 0.0, 0.0, 0.0)",8.874999246391166e-05,-0.00013290682253936818,-2.6825710603152846e-05,"(0.0, 0.0, 0.0, 0.0, 0.0, 0.0, 0.0, 0.0, 0.0)",-0.764,0.212,-9.721,"(0.0, 0.0, 0.0, 0.0, 0.0, 0.0, 0.0, 0.0, 0.0)",0,0,0,,3.628e-05,-7.76e-06,-2.9570000000000003e-05,"(0.0, 0.0, 0.0, 0.0, 0.0, 0.0, 0.0, 0.0, 0.0)",
1711562707.4204993,1983,1711562707,418277740,imu1_frame,0,0,0,,-0.04031680964349165,-0.008725011521399527,-0.7680378681728114,0.6390745356268588,"(0.0, 0.0, 0.0, 0.0, 0.0, 0.0, 0.0, 0.0, 0.0)",0.00013412855301576422,-0.00011629128806038216,4.424409653805625e-05,"(0.0, 0.0, 0.0, 0.0, 0.0, 0.0, 0.0, 0.0, 0.0)",-0.703,0.428,-9.628,"(0.0, 0.0, 0.0, 0.0, 0.0, 0.0, 0.0, 0.0, 0.0)",0,0,0,,3.6620000000000005e-05,-7.049999999999999e-06,-3.2229999999999995e-05,"(0.0, 0.0, 0.0, 0.0, 0.0, 0.0, 0.0, 0.0, 0.0)",
1711562707.4450412,1984,1711562707,443000078,imu1_frame,0,0,0,,-0.04032915732773817,-0.008723543540241319,-0.768043382884584,0.639067148948012,"(0.0, 0.0, 0.0, 0.0, 0.0, 0.0, 0.0, 0.0, 0.0)",-0.00014589207217420602,-5.146975964131277e-05,-2.6197392072434882e-05,"(0.0, 0.0, 0.0, 0.0, 0.0, 0.0, 0.0, 0.0, 0.0)",-0.666,0.635,-9.668,"(0.0, 0.0, 0.0, 0.0, 0.0, 0.0, 0.0, 0.0, 0.0)",0,0,0,,3.651e-05,-7.2900000000000005e-06,-3.1169999999999995e-05,"(0.0, 0.0, 0.0, 0.0, 0.0, 0.0, 0.0, 0.0, 0.0)",
1711562707.4710662,1985,1711562707,468733072,imu1_frame,0,0,0,,-0.04030796736436988,-0.0087626420332917,-0.7680428628706674,0.6390685758703664,"(0.0, 0.0, 0.0, 0.0, 0.0, 0.0, 0.0, 0.0, 0.0)",3.082251459021986e-05,-0.0001314581992602129,-1.7994344588061536e-05,"(0.0, 0.0, 0.0, 0.0, 0.0, 0.0, 0.0, 0.0, 0.0)",-0.755,0.164,-9.696,"(0.0, 0.0, 0.0, 0.0, 0.0, 0.0, 0.0, 0.0, 0.0)",0,0,0,,3.642e-05,-6.1e-06,-3.0520000000000006e-05,"(0.0, 0.0, 0.0, 0.0, 0.0, 0.0, 0.0, 0.0, 0.0)",
1711562707.4963663,1986,1711562707,493810176,imu1_frame,0,0,0,,-0.040322386619362605,-0.008718309126277581,-0.7680379442836558,0.6390741837719885,"(0.0, 0.0, 0.0, 0.0, 0.0, 0.0, 0.0, 0.0, 0.0)",9.9413954193597e-05,2.7052603405912107e-05,9.023352232810684e-06,"(0.0, 0.0, 0.0, 0.0, 0.0, 0.0, 0.0, 0.0, 0.0)",-0.683,0.475,-9.591,"(0.0, 0.0, 0.0, 0.0, 0.0, 0.0, 0.0, 0.0, 0.0)",0,0,0,,3.649e-05,-8e-06,-3.049e-05,"(0.0, 0.0, 0.0, 0.0, 0.0, 0.0, 0.0, 0.0, 0.0)",
1711562707.5189893,1987,1711562707,518644571,imu1_frame,0,0,0,,-0.040344629116785644,-0.008759997730370127,-0.768031522229555,0.6390799278673563,"(0.0, 0.0, 0.0, 0.0, 0.0, 0.0, 0.0, 0.0, 0.0)",-0.00011655308744818133,-6.288421294935569e-05,9.320058205649719e-06,"(0.0, 0.0, 0.0, 0.0, 0.0, 0.0, 0.0, 0.0, 0.0)",-0.617,0.509,-9.69,"(0.0, 0.0, 0.0, 0.0, 0.0, 0.0, 0.0, 0.0, 0.0)",0,0,0,,3.684e-05,-7.17e-06,-3.088e-05,"(0.0, 0.0, 0.0, 0.0, 0.0, 0.0, 0.0, 0.0, 0.0)",
1711562707.5460854,1988,1711562707,543417453,imu1_frame,0,0,0,,-0.040354676130974404,-0.008802450345431199,-0.7680307367809815,0.6390796541448825,"(0.0, 0.0, 0.0, 0.0, 0.0, 0.0, 0.0, 0.0, 0.0)",9.16297857297023e-05,-5.642649471697668e-05,-1.731366617978375e-05,"(0.0, 0.0, 0.0, 0.0, 0.0, 0.0, 0.0, 0.0, 0.0)",-0.682,0.18,-9.617,"(0.0, 0.0, 0.0, 0.0, 0.0, 0.0, 0.0, 0.0, 0.0)",0,0,0,,3.6259999999999995e-05,-8.35e-06,-3.023e-05,"(0.0, 0.0, 0.0, 0.0, 0.0, 0.0, 0.0, 0.0, 0.0)",
1711562707.5703955,1989,1711562707,568224191,imu1_frame,0,0,0,,-0.040395873583681186,-0.00878046400313984,-0.768025265311073,0.6390839293028396,"(0.0, 0.0, 0.0, 0.0, 0.0, 0.0, 0.0, 0.0, 0.0)",6.951646410693416e-05,-0.00012981758976333824,1.4137166941154069e-05,"(0.0, 0.0, 0.0, 0.0, 0.0, 0.0, 0.0, 0.0, 0.0)",-0.681,0.539,-9.624,"(0.0, 0.0, 0.0, 0.0, 0.0, 0.0, 0.0, 0.0, 0.0)",0,0,0,,3.638e-05,-8.11e-06,-3.0359999999999997e-05,"(0.0, 0.0, 0.0, 0.0, 0.0, 0.0, 0.0, 0.0, 0.0)",
1711562707.5954444,1990,1711562707,593230247,imu1_frame,0,0,0,,-0.040389179132356276,-0.00877487754104001,-0.7680254042314185,0.6390842621973415,"(0.0, 0.0, 0.0, 0.0, 0.0, 0.0, 0.0, 0.0, 0.0)",-0.00023476423768575727,7.239625737272479e-05,1.2356931104119853e-05,"(0.0, 0.0, 0.0, 0.0, 0.0, 0.0, 0.0, 0.0, 0.0)",-0.662,0.548,-9.735,"(0.0, 0.0, 0.0, 0.0, 0.0, 0.0, 0.0, 0.0, 0.0)",0,0,0,,3.64e-05,-6.93e-06,-3.038e-05,"(0.0, 0.0, 0.0, 0.0, 0.0, 0.0, 0.0, 0.0, 0.0)",
1711562707.6213136,1991,1711562707,618886470,imu1_frame,0,0,0,,-0.040391413912824706,-0.00879945503042467,-0.768024972869753,0.6390843014201689,"(0.0, 0.0, 0.0, 0.0, 0.0, 0.0, 0.0, 0.0, 0.0)",4.270820679630124e-05,-8.709192967451704e-06,1.0349802464326373e-05,"(0.0, 0.0, 0.0, 0.0, 0.0, 0.0, 0.0, 0.0, 0.0)",-0.707,0.157,-9.592,"(0.0, 0.0, 0.0, 0.0, 0.0, 0.0, 0.0, 0.0, 0.0)",0,0,0,,3.641e-05,-6.460000000000001e-06,-3.118e-05,"(0.0, 0.0, 0.0, 0.0, 0.0, 0.0, 0.0, 0.0, 0.0)",
1711562707.6460147,1992,1711562707,643857717,imu1_frame,0,0,0,,-0.0404069511877259,-0.008767412049688299,-0.7680198413596304,0.6390899264263142,"(0.0, 0.0, 0.0, 0.0, 0.0, 0.0, 0.0, 0.0, 0.0)",7.319910882864219e-05,-2.5569073541716925e-05,-1.5707963267948966e-07,"(0.0, 0.0, 0.0, 0.0, 0.0, 0.0, 0.0, 0.0, 0.0)",-0.671,0.568,-9.565,"(0.0, 0.0, 0.0, 0.0, 0.0, 0.0, 0.0, 0.0, 0.0)",0,0,0,,3.6530000000000004e-05,-6.22e-06,-3.145e-05,"(0.0, 0.0, 0.0, 0.0, 0.0, 0.0, 0.0, 0.0, 0.0)",
1711562707.6706662,1993,1711562707,668705224,imu1_frame,0,0,0,,-0.04039803152378661,-0.008805394028425211,-0.7680192566459604,0.6390906708018774,"(0.0, 0.0, 0.0, 0.0, 0.0, 0.0, 0.0, 0.0, 0.0)",-0.0001625425132382319,2.951351765122411e-05,1.5760323145508797e-05,"(0.0, 0.0, 0.0, 0.0, 0.0, 0.0, 0.0, 0.0, 0.0)",-0.755,0.367,-9.671,"(0.0, 0.0, 0.0, 0.0, 0.0, 0.0, 0.0, 0.0, 0.0)",0,0,0,,3.672e-05,-7.76e-06,-3.0480000000000003e-05,"(0.0, 0.0, 0.0, 0.0, 0.0, 0.0, 0.0, 0.0, 0.0)",
1711562707.6958008,1994,1711562707,693735599,imu1_frame,0,0,0,,-0.04041692054776844,-0.008810217534146599,-0.7680134779779074,0.6390963544292163,"(0.0, 0.0, 0.0, 0.0, 0.0, 0.0, 0.0, 0.0, 0.0)",9.283406291357839e-05,-2.590068609959585e-05,3.1154127148098785e-05,"(0.0, 0.0, 0.0, 0.0, 0.0, 0.0, 0.0, 0.0, 0.0)",-0.722,0.281,-9.551,"(0.0, 0.0, 0.0, 0.0, 0.0, 0.0, 0.0, 0.0, 0.0)",0,0,0,,3.638e-05,-7.879999999999999e-06,-3.0370000000000002e-05,"(0.0, 0.0, 0.0, 0.0, 0.0, 0.0, 0.0, 0.0, 0.0)",
1711562707.7210212,1995,1711562707,718385696,imu1_frame,0,0,0,,-0.04043922919438508,-0.008783408801003733,-0.7680137850446144,0.6390949432231827,"(0.0, 0.0, 0.0, 0.0, 0.0, 0.0, 0.0, 0.0, 0.0)",-3.597123588360313e-05,9.342747485925646e-05,4.188790204786391e-06,"(0.0, 0.0, 0.0, 0.0, 0.0, 0.0, 0.0, 0.0, 0.0)",-0.683,0.583,-9.54,"(0.0, 0.0, 0.0, 0.0, 0.0, 0.0, 0.0, 0.0, 0.0)",0,0,0,,3.649e-05,-8.229999999999999e-06,-3.169e-05,"(0.0, 0.0, 0.0, 0.0, 0.0, 0.0, 0.0, 0.0, 0.0)",
1711562707.7453809,1996,1711562707,743343830,imu1_frame,0,0,0,,-0.040397954680689505,-0.008805746567420631,-0.7680136794985042,0.6390973730099163,"(0.0, 0.0, 0.0, 0.0, 0.0, 0.0, 0.0, 0.0, 0.0)",-4.122467693210606e-05,-4.00727596257898e-05,1.4660765716752367e-06,"(0.0, 0.0, 0.0, 0.0, 0.0, 0.0, 0.0, 0.0, 0.0)",-0.768,0.247,-9.717,"(0.0, 0.0, 0.0, 0.0, 0.0, 0.0, 0.0, 0.0, 0.0)",0,0,0,,3.6309999999999996e-05,-6.22e-06,-3.132e-05,"(0.0, 0.0, 0.0, 0.0, 0.0, 0.0, 0.0, 0.0, 0.0)",
1711562707.7706428,1997,1711562707,768738031,imu1_frame,0,0,0,,-0.040409032298737026,-0.008792694834337889,-0.7680082558710101,0.639103369995965,"(0.0, 0.0, 0.0, 0.0, 0.0, 0.0, 0.0, 0.0, 0.0)",0.00013411109972324427,-1.1780972450961725e-05,-1.7610372152622784e-05,"(0.0, 0.0, 0.0, 0.0, 0.0, 0.0, 0.0, 0.0, 0.0)",-0.73,0.329,-9.577,"(0.0, 0.0, 0.0, 0.0, 0.0, 0.0, 0.0, 0.0, 0.0)",0,0,0,,3.629e-05,-7.16e-06,-3.091e-05,"(0.0, 0.0, 0.0, 0.0, 0.0, 0.0, 0.0, 0.0, 0.0)",
1711562707.7967482,1998,1711562707,794378995,imu1_frame,0,0,0,,-0.04045931217427774,-0.008800168536696849,-0.7680133676870001,0.6390939431305719,"(0.0, 0.0, 0.0, 0.0, 0.0, 0.0, 0.0, 0.0, 0.0)",-4.234168765338244e-05,-7.290240285580315e-05,5.585053606381855e-06,"(0.0, 0.0, 0.0, 0.0, 0.0, 0.0, 0.0, 0.0, 0.0)",-0.67,0.634,-9.669,"(0.0, 0.0, 0.0, 0.0, 0.0, 0.0, 0.0, 0.0, 0.0)",0,0,0,,3.673e-05,-7.2900000000000005e-06,-3.2619999999999996e-05,"(0.0, 0.0, 0.0, 0.0, 0.0, 0.0, 0.0, 0.0, 0.0)",
1711562707.8206296,1999,1711562707,818536520,imu1_frame,0,0,0,,-0.040432466378966136,-0.008846321020606689,-0.7680071891382004,0.6391024297395173,"(0.0, 0.0, 0.0, 0.0, 0.0, 0.0, 0.0, 0.0, 0.0)",5.1504666226352664e-05,-4.0997784129346795e-05,-2.3404865269243962e-05,"(0.0, 0.0, 0.0, 0.0, 0.0, 0.0, 0.0, 0.0, 0.0)",-0.768,0.174,-9.704,"(0.0, 0.0, 0.0, 0.0, 0.0, 0.0, 0.0, 0.0, 0.0)",0,0,0,,3.673e-05,-7.049999999999999e-06,-3.143e-05,"(0.0, 0.0, 0.0, 0.0, 0.0, 0.0, 0.0, 0.0, 0.0)",
1711562707.8456166,2000,1711562707,843488454,imu1_frame,0,0,0,,-0.04046027553679023,-0.008813163459720398,-0.768001997166012,0.6391073670380714,"(0.0, 0.0, 0.0, 0.0, 0.0, 0.0, 0.0, 0.0, 0.0)",9.454448558053284e-05,5.166174585903215e-06,1.2217304763960308e-05,"(0.0, 0.0, 0.0, 0.0, 0.0, 0.0, 0.0, 0.0, 0.0)",-0.736,0.472,-9.636,"(0.0, 0.0, 0.0, 0.0, 0.0, 0.0, 0.0, 0.0, 0.0)",0,0,0,,3.648e-05,-8.47e-06,-3.075e-05,"(0.0, 0.0, 0.0, 0.0, 0.0, 0.0, 0.0, 0.0, 0.0)",
1711562707.872831,2001,1711562707,870254993,imu1_frame,0,0,0,,-0.040434615575745736,-0.008803105464235237,-0.7680023380355468,0.6391087199916465,"(0.0, 0.0, 0.0, 0.0, 0.0, 0.0, 0.0, 0.0, 0.0)",-0.00014824826666439835,7.346090821644132e-05,-2.457423586808016e-05,"(0.0, 0.0, 0.0, 0.0, 0.0, 0.0, 0.0, 0.0, 0.0)",-0.665,0.557,-9.656,"(0.0, 0.0, 0.0, 0.0, 0.0, 0.0, 0.0, 0.0, 0.0)",0,0,0,,3.649e-05,-8.11e-06,-3.129e-05,"(0.0, 0.0, 0.0, 0.0, 0.0, 0.0, 0.0, 0.0, 0.0)",
1711562707.897332,2002,1711562707,895045042,imu1_frame,0,0,0,,-0.04040553519026299,-0.00882467971415615,-0.767996592308538,0.6391171660630028,"(0.0, 0.0, 0.0, 0.0, 0.0, 0.0, 0.0, 0.0, 0.0)",7.148868616168773e-05,-0.00011857766938049475,-4.729842272904632e-06,"(0.0, 0.0, 0.0, 0.0, 0.0, 0.0, 0.0, 0.0, 0.0)",-0.704,0.152,-9.676,"(0.0, 0.0, 0.0, 0.0, 0.0, 0.0, 0.0, 0.0, 0.0)",0,0,0,,3.65e-05,-7.41e-06,-2.983e-05,"(0.0, 0.0, 0.0, 0.0, 0.0, 0.0, 0.0, 0.0, 0.0)",
1711562707.923094,2003,1711562707,919984102,imu1_frame,0,0,0,,-0.04041326274866446,-0.008774761941557544,-0.7679918162060648,0.6391231039380335,"(0.0, 0.0, 0.0, 0.0, 0.0, 0.0, 0.0, 0.0, 0.0)",0.00011599458208754315,-1.7296212887263805e-05,1.5009831567151237e-06,"(0.0, 0.0, 0.0, 0.0, 0.0, 0.0, 0.0, 0.0, 0.0)",-0.711,0.475,-9.616,"(0.0, 0.0, 0.0, 0.0, 0.0, 0.0, 0.0, 0.0, 0.0)",0,0,0,,3.645e-05,-4.5699999999999994e-06,-3.214e-05,"(0.0, 0.0, 0.0, 0.0, 0.0, 0.0, 0.0, 0.0, 0.0)",
1711562707.9466622,2004,1711562707,944738149,imu1_frame,0,0,0,,-0.04042107364230324,-0.008792637558440147,-0.767991461601827,0.6391227904221995,"(0.0, 0.0, 0.0, 0.0, 0.0, 0.0, 0.0, 0.0, 0.0)",-0.0001312138531649337,0.00017671458676442585,-4.5378560551852565e-07,"(0.0, 0.0, 0.0, 0.0, 0.0, 0.0, 0.0, 0.0, 0.0)",-0.65,0.532,-9.713,"(0.0, 0.0, 0.0, 0.0, 0.0, 0.0, 0.0, 0.0, 0.0)",0,0,0,,3.685e-05,-6.7e-06,-3.196e-05,"(0.0, 0.0, 0.0, 0.0, 0.0, 0.0, 0.0, 0.0, 0.0)",
1711562707.971757,2005,1711562707,969384431,imu1_frame,0,0,0,,-0.040423230188610396,-0.00881756791306874,-0.7679854521665742,0.6391295316426239,"(0.0, 0.0, 0.0, 0.0, 0.0, 0.0, 0.0, 0.0, 0.0)",9.920451468335768e-05,-7.237880408020483e-05,-2.4434609527920616e-07,"(0.0, 0.0, 0.0, 0.0, 0.0, 0.0, 0.0, 0.0, 0.0)",-0.7,0.188,-9.634,"(0.0, 0.0, 0.0, 0.0, 0.0, 0.0, 0.0, 0.0, 0.0)",0,0,0,,3.671e-05,-8.24e-06,-3.1280000000000005e-05,"(0.0, 0.0, 0.0, 0.0, 0.0, 0.0, 0.0, 0.0, 0.0)",
1711562707.99698,2006,1711562707,994770526,imu1_frame,0,0,0,,-0.04046442883921581,-0.008795585079974483,-0.76797998053883,0.6391338022459735,"(0.0, 0.0, 0.0, 0.0, 0.0, 0.0, 0.0, 0.0, 0.0)",5.686282702997525e-05,-0.00011943288071397197,2.5237460983838005e-05,"(0.0, 0.0, 0.0, 0.0, 0.0, 0.0, 0.0, 0.0, 0.0)",-0.68,0.568,-9.563,"(0.0, 0.0, 0.0, 0.0, 0.0, 0.0, 0.0, 0.0, 0.0)",0,0,0,,3.649e-05,-8.11e-06,-3.009e-05,"(0.0, 0.0, 0.0, 0.0, 0.0, 0.0, 0.0, 0.0, 0.0)",
1711562708.021347,2007,1711562708,18865823,imu1_frame,0,0,0,,-0.04044761940858099,-0.008816043718235014,-0.7679741724746784,0.6391415632464921,"(0.0, 0.0, 0.0, 0.0, 0.0, 0.0, 0.0, 0.0, 0.0)",-0.00013864895577842952,4.073598474154765e-05,2.8867745827986213e-05,"(0.0, 0.0, 0.0, 0.0, 0.0, 0.0, 0.0, 0.0, 0.0)",-0.672,0.455,-9.694,"(0.0, 0.0, 0.0, 0.0, 0.0, 0.0, 0.0, 0.0, 0.0)",0,0,0,,3.661e-05,-7.76e-06,-3.0359999999999997e-05,"(0.0, 0.0, 0.0, 0.0, 0.0, 0.0, 0.0, 0.0, 0.0)",
1711562708.0458956,2008,1711562708,44086694,imu1_frame,0,0,0,,-0.040416382286796365,-0.008812686446886878,-0.7679744363703084,0.6391432685103892,"(0.0, 0.0, 0.0, 0.0, 0.0, 0.0, 0.0, 0.0, 0.0)",7.314674895108235e-05,-1.200786525372099e-05,-1.663298777150596e-05,"(0.0, 0.0, 0.0, 0.0, 0.0, 0.0, 0.0, 0.0, 0.0)",-0.679,0.175,-9.612,"(0.0, 0.0, 0.0, 0.0, 0.0, 0.0, 0.0, 0.0, 0.0)",0,0,0,,3.661e-05,-7.530000000000001e-06,-3.063e-05,"(0.0, 0.0, 0.0, 0.0, 0.0, 0.0, 0.0, 0.0, 0.0)",
1711562708.0721984,2009,1711562708,70159673,imu1_frame,0,0,0,,-0.0404767003544064,-0.008794470120174473,-0.7679799181443377,0.6391331155172146,"(0.0, 0.0, 0.0, 0.0, 0.0, 0.0, 0.0, 0.0, 0.0)",4.9096111858600486e-05,-6.681120376634293e-05,1.155407964820246e-05,"(0.0, 0.0, 0.0, 0.0, 0.0, 0.0, 0.0, 0.0, 0.0)",-0.666,0.564,-9.576,"(0.0, 0.0, 0.0, 0.0, 0.0, 0.0, 0.0, 0.0, 0.0)",0,0,0,,3.663e-05,-6.7e-06,-3.1169999999999995e-05,"(0.0, 0.0, 0.0, 0.0, 0.0, 0.0, 0.0, 0.0, 0.0)",
1711562708.0982738,2010,1711562708,95790147,imu1_frame,0,0,0,,-0.040466584930496124,-0.008820515848151824,-0.7679739707923159,0.6391405433781513,"(0.0, 0.0, 0.0, 0.0, 0.0, 0.0, 0.0, 0.0, 0.0)",-0.00013768902468983267,6.447246256867053e-05,8.15068760681352e-06,"(0.0, 0.0, 0.0, 0.0, 0.0, 0.0, 0.0, 0.0, 0.0)",-0.7,0.382,-9.699,"(0.0, 0.0, 0.0, 0.0, 0.0, 0.0, 0.0, 0.0, 0.0)",0,0,0,,3.704e-05,-8.12e-06,-3.126e-05,"(0.0, 0.0, 0.0, 0.0, 0.0, 0.0, 0.0, 0.0, 0.0)",
1711562708.1234496,2011,1711562708,121578693,imu1_frame,0,0,0,,-0.0404465029841906,-0.008803754893356728,-0.7679743885860117,0.6391415436130474,"(0.0, 0.0, 0.0, 0.0, 0.0, 0.0, 0.0, 0.0, 0.0)",0.00011175343200519691,-7.504915783575617e-06,-3.8048177693476384e-06,"(0.0, 0.0, 0.0, 0.0, 0.0, 0.0, 0.0, 0.0, 0.0)",-0.687,0.216,-9.573,"(0.0, 0.0, 0.0, 0.0, 0.0, 0.0, 0.0, 0.0, 0.0)",0,0,0,,3.682e-05,-8.12e-06,-3.154e-05,"(0.0, 0.0, 0.0, 0.0, 0.0, 0.0, 0.0, 0.0, 0.0)",
1711562708.1472545,2012,1711562708,144757747,imu1_frame,0,0,0,,-0.040455425251860064,-0.00876577354177317,-0.767974973273816,0.6391407984215897,"(0.0, 0.0, 0.0, 0.0, 0.0, 0.0, 0.0, 0.0, 0.0)",-3.07177948351002e-06,-4.8083820892443776e-05,3.7524578917878083e-06,"(0.0, 0.0, 0.0, 0.0, 0.0, 0.0, 0.0, 0.0, 0.0)",-0.675,0.595,-9.583,"(0.0, 0.0, 0.0, 0.0, 0.0, 0.0, 0.0, 0.0, 0.0)",0,0,0,,3.663e-05,-6.82e-06,-2.9570000000000003e-05,"(0.0, 0.0, 0.0, 0.0, 0.0, 0.0, 0.0, 0.0, 0.0)",
1711562708.1718223,2013,1711562708,169571161,imu1_frame,0,0,0,,-0.040440848533210234,-0.008810809647162412,-0.7679687341350313,0.639148598366853,"(0.0, 0.0, 0.0, 0.0, 0.0, 0.0, 0.0, 0.0, 0.0)",-8.845328649107262e-05,3.841469683639519e-05,1.9041542139258134e-05,"(0.0, 0.0, 0.0, 0.0, 0.0, 0.0, 0.0, 0.0, 0.0)",-0.75,0.338,-9.714,"(0.0, 0.0, 0.0, 0.0, 0.0, 0.0, 0.0, 0.0, 0.0)",0,0,0,,3.7069999999999996e-05,-6.9400000000000005e-06,-3.0209999999999997e-05,"(0.0, 0.0, 0.0, 0.0, 0.0, 0.0, 0.0, 0.0, 0.0)",
1711562708.197445,2014,1711562708,194345951,imu1_frame,0,0,0,,-0.040431845328345754,-0.008780997757886905,-0.7679637272525085,0.6391555941913949,"(0.0, 0.0, 0.0, 0.0, 0.0, 0.0, 0.0, 0.0, 0.0)",8.4334309456366e-05,0.00011283553614143341,1.4748032179352085e-05,"(0.0, 0.0, 0.0, 0.0, 0.0, 0.0, 0.0, 0.0, 0.0)",-0.7,0.261,-9.571,"(0.0, 0.0, 0.0, 0.0, 0.0, 0.0, 0.0, 0.0, 0.0)",0,0,0,,3.664e-05,-6.11e-06,-2.9970000000000003e-05,"(0.0, 0.0, 0.0, 0.0, 0.0, 0.0, 0.0, 0.0, 0.0)",
1711562708.221519,2015,1711562708,219064235,imu1_frame,0,0,0,,-0.04042068658479218,-0.008726255198873527,-0.7679647263271638,0.6391558492914404,"(0.0, 0.0, 0.0, 0.0, 0.0, 0.0, 0.0, 0.0, 0.0)",-4.485496177625427e-05,1.1955505376161157e-05,-1.689478715930511e-05,"(0.0, 0.0, 0.0, 0.0, 0.0, 0.0, 0.0, 0.0, 0.0)",-0.669,0.619,-9.587,"(0.0, 0.0, 0.0, 0.0, 0.0, 0.0, 0.0, 0.0, 0.0)",0,0,0,,3.663e-05,-6.7e-06,-3.077e-05,"(0.0, 0.0, 0.0, 0.0, 0.0, 0.0, 0.0, 0.0, 0.0)",
1711562708.2470121,2016,1711562708,245151281,imu1_frame,0,0,0,,-0.04039272166641504,-0.008760116466417093,-0.767958767109775,0.6391643140970158,"(0.0, 0.0, 0.0, 0.0, 0.0, 0.0, 0.0, 0.0, 0.0)",-7.449065247511799e-05,4.874704600820162e-05,-2.338741197672402e-06,"(0.0, 0.0, 0.0, 0.0, 0.0, 0.0, 0.0, 0.0, 0.0)",-0.752,0.272,-9.67,"(0.0, 0.0, 0.0, 0.0, 0.0, 0.0, 0.0, 0.0, 0.0)",0,0,0,,3.684e-05,-7.2900000000000005e-06,-3.0480000000000003e-05,"(0.0, 0.0, 0.0, 0.0, 0.0, 0.0, 0.0, 0.0, 0.0)",
1711562708.2712033,2017,1711562708,268885612,imu1_frame,0,0,0,,-0.04041607246872143,-0.00874595121684079,-0.7679532798247225,0.6391696249275048,"(0.0, 0.0, 0.0, 0.0, 0.0, 0.0, 0.0, 0.0, 0.0)",0.00010035643198967394,-0.00011075859433156016,5.0090949532237265e-05,"(0.0, 0.0, 0.0, 0.0, 0.0, 0.0, 0.0, 0.0, 0.0)",-0.696,0.321,-9.58,"(0.0, 0.0, 0.0, 0.0, 0.0, 0.0, 0.0, 0.0, 0.0)",0,0,0,,3.7159999999999997e-05,-7.65e-06,-3.073e-05,"(0.0, 0.0, 0.0, 0.0, 0.0, 0.0, 0.0, 0.0, 0.0)",
1711562708.2970412,2018,1711562708,293987989,imu1_frame,0,0,0,,-0.040433845618013976,-0.008738487984474056,-0.7679477159847337,0.6391752877498588,"(0.0, 0.0, 0.0, 0.0, 0.0, 0.0, 0.0, 0.0, 0.0)",-4.0578905108868154e-05,3.8135444156076095e-05,-5.078908123303499e-06,"(0.0, 0.0, 0.0, 0.0, 0.0, 0.0, 0.0, 0.0, 0.0)",-0.715,0.6,-9.59,"(0.0, 0.0, 0.0, 0.0, 0.0, 0.0, 0.0, 0.0, 0.0)",0,0,0,,3.673e-05,-7.41e-06,-2.995e-05,"(0.0, 0.0, 0.0, 0.0, 0.0, 0.0, 0.0, 0.0, 0.0)",
1711562708.3220642,2019,1711562708,319624185,imu1_frame,0,0,0,,-0.040400301812670486,-0.008779050180335448,-0.7679416794815438,0.6391841055646191,"(0.0, 0.0, 0.0, 0.0, 0.0, 0.0, 0.0, 0.0, 0.0)",3.5360370645405115e-05,7.8487456462185e-05,-1.5009831567151237e-06,"(0.0, 0.0, 0.0, 0.0, 0.0, 0.0, 0.0, 0.0, 0.0)",-0.735,0.22,-9.697,"(0.0, 0.0, 0.0, 0.0, 0.0, 0.0, 0.0, 0.0, 0.0)",0,0,0,,3.672e-05,-7.530000000000001e-06,-3.075e-05,"(0.0, 0.0, 0.0, 0.0, 0.0, 0.0, 0.0, 0.0, 0.0)",
1711562708.3467193,2020,1711562708,344600677,imu1_frame,0,0,0,,-0.04039018450488615,-0.008736948605569514,-0.7679368854641923,0.6391910814993284,"(0.0, 0.0, 0.0, 0.0, 0.0, 0.0, 0.0, 0.0, 0.0)",0.00012999212268853766,-4.546582701445228e-05,2.3963370629882146e-05,"(0.0, 0.0, 0.0, 0.0, 0.0, 0.0, 0.0, 0.0, 0.0)",-0.722,0.419,-9.582,"(0.0, 0.0, 0.0, 0.0, 0.0, 0.0, 0.0, 0.0, 0.0)",0,0,0,,3.654e-05,-5.510000000000001e-06,-3.065e-05,"(0.0, 0.0, 0.0, 0.0, 0.0, 0.0, 0.0, 0.0, 0.0)",
1711562708.3722663,2021,1711562708,369447708,imu1_frame,0,0,0,,-0.040413612134552954,-0.008722431469163459,-0.7679369755767006,0.6391896906909665,"(0.0, 0.0, 0.0, 0.0, 0.0, 0.0, 0.0, 0.0, 0.0)",-0.00012873548562710176,2.1485003092050198e-05,-2.426007660272118e-06,"(0.0, 0.0, 0.0, 0.0, 0.0, 0.0, 0.0, 0.0, 0.0)",-0.668,0.63,-9.643,"(0.0, 0.0, 0.0, 0.0, 0.0, 0.0, 0.0, 0.0, 0.0)",0,0,0,,3.685e-05,-6.82e-06,-3.102e-05,"(0.0, 0.0, 0.0, 0.0, 0.0, 0.0, 0.0, 0.0, 0.0)",
1711562708.3979678,2022,1711562708,395501613,imu1_frame,0,0,0,,-0.040381183283058945,-0.008775281843951032,-0.7679307245337873,0.6391985268930396,"(0.0, 0.0, 0.0, 0.0, 0.0, 0.0, 0.0, 0.0, 0.0)",4.682718383100786e-05,-0.00013165018547793228,-1.356120828799594e-05,"(0.0, 0.0, 0.0, 0.0, 0.0, 0.0, 0.0, 0.0, 0.0)",-0.746,0.17,-9.717,"(0.0, 0.0, 0.0, 0.0, 0.0, 0.0, 0.0, 0.0, 0.0)",0,0,0,,3.6620000000000005e-05,-7.41e-06,-3.196e-05,"(0.0, 0.0, 0.0, 0.0, 0.0, 0.0, 0.0, 0.0, 0.0)",
1711562708.4251018,2023,1711562708,421225309,imu1_frame,0,0,0,,-0.04041688272098236,-0.00875965092018485,-0.7679307530877021,0.6391964506855695,"(0.0, 0.0, 0.0, 0.0, 0.0, 0.0, 0.0, 0.0, 0.0)",0.00014852751934471743,-1.973967384005587e-05,2.8972465583105867e-06,"(0.0, 0.0, 0.0, 0.0, 0.0, 0.0, 0.0, 0.0, 0.0)",-0.657,0.5,-9.628,"(0.0, 0.0, 0.0, 0.0, 0.0, 0.0, 0.0, 0.0, 0.0)",0,0,0,,3.694e-05,-7.65e-06,-3.127e-05,"(0.0, 0.0, 0.0, 0.0, 0.0, 0.0, 0.0, 0.0, 0.0)",
1711562708.4489648,2024,1711562708,446532726,imu1_frame,0,0,0,,-0.040399033015524125,-0.008767466381315597,-0.7679307388594282,0.6391974890278244,"(0.0, 0.0, 0.0, 0.0, 0.0, 0.0, 0.0, 0.0, 0.0)",-0.00015913912119684296,6.593853914034576e-05,1.2915436464758038e-06,"(0.0, 0.0, 0.0, 0.0, 0.0, 0.0, 0.0, 0.0, 0.0)",-0.685,0.498,-9.7,"(0.0, 0.0, 0.0, 0.0, 0.0, 0.0, 0.0, 0.0, 0.0)",0,0,0,,3.6859999999999996e-05,-6.469999999999999e-06,-3.143e-05,"(0.0, 0.0, 0.0, 0.0, 0.0, 0.0, 0.0, 0.0, 0.0)",
1711562708.4754176,2025,1711562708,471873521,imu1_frame,0,0,0,,-0.04036891159054937,-0.008776395848095878,-0.7679307867285216,0.6391992120203418,"(0.0, 0.0, 0.0, 0.0, 0.0, 0.0, 0.0, 0.0, 0.0)",0.00011269590980127386,-1.9792033717615698e-05,-5.7072266540214576e-06,"(0.0, 0.0, 0.0, 0.0, 0.0, 0.0, 0.0, 0.0, 0.0)",-0.653,0.219,-9.64,"(0.0, 0.0, 0.0, 0.0, 0.0, 0.0, 0.0, 0.0, 0.0)",0,0,0,,3.672e-05,-7.879999999999999e-06,-3.062e-05,"(0.0, 0.0, 0.0, 0.0, 0.0, 0.0, 0.0, 0.0, 0.0)",
1711562708.5001698,2026,1711562708,496815681,imu1_frame,0,0,0,,-0.040396801879176936,-0.008742888538112387,-0.7679311689400155,0.6391974499858131,"(0.0, 0.0, 0.0, 0.0, 0.0, 0.0, 0.0, 0.0, 0.0)",6.496115475922895e-05,3.693116697220001e-05,9.791297103688187e-06,"(0.0, 0.0, 0.0, 0.0, 0.0, 0.0, 0.0, 0.0, 0.0)",-0.68,0.563,-9.558,"(0.0, 0.0, 0.0, 0.0, 0.0, 0.0, 0.0, 0.0, 0.0)",0,0,0,,3.671e-05,-8e-06,-3.035e-05,"(0.0, 0.0, 0.0, 0.0, 0.0, 0.0, 0.0, 0.0, 0.0)",
1711562708.5251849,2027,1711562708,521845817,imu1_frame,0,0,0,,-0.04037887578121665,-0.008751056377000445,-0.7679255767405228,0.6392051892707594,"(0.0, 0.0, 0.0, 0.0, 0.0, 0.0, 0.0, 0.0, 0.0)",-0.00020621065112313007,9.318312876397726e-05,1.2880529879718154e-05,"(0.0, 0.0, 0.0, 0.0, 0.0, 0.0, 0.0, 0.0, 0.0)",-0.689,0.501,-9.746,"(0.0, 0.0, 0.0, 0.0, 0.0, 0.0, 0.0, 0.0, 0.0)",0,0,0,,3.7109999999999995e-05,-4.58e-06,-3.13e-05,"(0.0, 0.0, 0.0, 0.0, 0.0, 0.0, 0.0, 0.0, 0.0)",
1711562708.5488455,2028,1711562708,546487569,imu1_frame,0,0,0,,-0.04036094951678418,-0.008759223905188754,-0.7679199843670764,0.6392129280297386,"(0.0, 0.0, 0.0, 0.0, 0.0, 0.0, 0.0, 0.0, 0.0)",6.22035345410779e-05,-1.1309733552923257e-05,-1.3351768777756618e-05,"(0.0, 0.0, 0.0, 0.0, 0.0, 0.0, 0.0, 0.0, 0.0)",-0.699,0.181,-9.594,"(0.0, 0.0, 0.0, 0.0, 0.0, 0.0, 0.0, 0.0, 0.0)",0,0,0,,3.676e-05,-5.75e-06,-3.251e-05,"(0.0, 0.0, 0.0, 0.0, 0.0, 0.0, 0.0, 0.0, 0.0)",
1711562708.572211,2029,1711562708,570109128,imu1_frame,0,0,0,,-0.040395610120100026,-0.008730952129417206,-0.767925805579479,0.6392041319352114,"(0.0, 0.0, 0.0, 0.0, 0.0, 0.0, 0.0, 0.0, 0.0)",2.567379329683659e-05,-1.446877949903299e-05,-1.1257373675363426e-05,"(0.0, 0.0, 0.0, 0.0, 0.0, 0.0, 0.0, 0.0, 0.0)",-0.659,0.527,-9.534,"(0.0, 0.0, 0.0, 0.0, 0.0, 0.0, 0.0, 0.0, 0.0)",0,0,0,,3.651e-05,-7.049999999999999e-06,-3.1440000000000004e-05,"(0.0, 0.0, 0.0, 0.0, 0.0, 0.0, 0.0, 0.0, 0.0)",
1711562708.5957415,2030,1711562708,594050645,imu1_frame,0,0,0,,-0.04035433236479953,-0.008753284172193839,-0.7679257010985924,0.6392065593122677,"(0.0, 0.0, 0.0, 0.0, 0.0, 0.0, 0.0, 0.0, 0.0)",-9.176941206986183e-05,0.0001659284519871009,1.392772743091475e-05,"(0.0, 0.0, 0.0, 0.0, 0.0, 0.0, 0.0, 0.0, 0.0)",-0.728,0.351,-9.719,"(0.0, 0.0, 0.0, 0.0, 0.0, 0.0, 0.0, 0.0, 0.0)",0,0,0,,3.695e-05,-7.530000000000001e-06,-3.1140000000000003e-05,"(0.0, 0.0, 0.0, 0.0, 0.0, 0.0, 0.0, 0.0, 0.0)",
1711562708.6235313,2031,1711562708,619929313,imu1_frame,0,0,0,,-0.04037991476599706,-0.008763697689903083,-0.7679197835530737,0.6392119101785346,"(0.0, 0.0, 0.0, 0.0, 0.0, 0.0, 0.0, 0.0, 0.0)",0.00011562806294462432,-9.028588220566665e-05,-7.923794804054255e-06,"(0.0, 0.0, 0.0, 0.0, 0.0, 0.0, 0.0, 0.0, 0.0)",-0.696,0.332,-9.543,"(0.0, 0.0, 0.0, 0.0, 0.0, 0.0, 0.0, 0.0, 0.0)",0,0,0,,3.695e-05,-7.059999999999999e-06,-3.1009999999999996e-05,"(0.0, 0.0, 0.0, 0.0, 0.0, 0.0, 0.0, 0.0, 0.0)",
1711562708.6467416,2032,1711562708,644862413,imu1_frame,0,0,0,,-0.04039003201021464,-0.008737653545943863,-0.7679257293583078,0.6392044844290723,"(0.0, 0.0, 0.0, 0.0, 0.0, 0.0, 0.0, 0.0, 0.0)",-7.218681786248548e-05,-1.942551457469689e-05,-5.358160803622591e-06,"(0.0, 0.0, 0.0, 0.0, 0.0, 0.0, 0.0, 0.0, 0.0)",-0.671,0.585,-9.573,"(0.0, 0.0, 0.0, 0.0, 0.0, 0.0, 0.0, 0.0, 0.0)",0,0,0,,3.674e-05,-6.7e-06,-3.063e-05,"(0.0, 0.0, 0.0, 0.0, 0.0, 0.0, 0.0, 0.0, 0.0)",
1711562708.6724298,2033,1711562708,669486999,imu1_frame,0,0,0,,-0.04035544782573206,-0.008765573103530617,-0.7679254860581284,0.6392065788313968,"(0.0, 0.0, 0.0, 0.0, 0.0, 0.0, 0.0, 0.0, 0.0)",-0.0001029569725751455,0.00011122983322959863,-9.16297857297023e-06,"(0.0, 0.0, 0.0, 0.0, 0.0, 0.0, 0.0, 0.0, 0.0)",-0.787,0.307,-9.645,"(0.0, 0.0, 0.0, 0.0, 0.0, 0.0, 0.0, 0.0, 0.0)",0,0,0,,3.675e-05,-6.2300000000000005e-06,-3.103e-05,"(0.0, 0.0, 0.0, 0.0, 0.0, 0.0, 0.0, 0.0, 0.0)",
1711562708.696534,2034,1711562708,694356203,imu1_frame,0,0,0,,-0.04034644707883751,-0.00873575980713681,-0.7679204761729973,0.6392135738412815,"(0.0, 0.0, 0.0, 0.0, 0.0, 0.0, 0.0, 0.0, 0.0)",0.00013798573066267167,7.10698071412091e-05,2.2794000031045942e-05,"(0.0, 0.0, 0.0, 0.0, 0.0, 0.0, 0.0, 0.0, 0.0)",-0.708,0.262,-9.525,"(0.0, 0.0, 0.0, 0.0, 0.0, 0.0, 0.0, 0.0, 0.0)",0,0,0,,3.663e-05,-6.82e-06,-3.1169999999999995e-05,"(0.0, 0.0, 0.0, 0.0, 0.0, 0.0, 0.0, 0.0, 0.0)",
1711562708.722081,2035,1711562708,719207286,imu1_frame,0,0,0,,-0.0403296381006248,-0.008688069718424854,-0.7679158168127113,0.6392208820307006,"(0.0, 0.0, 0.0, 0.0, 0.0, 0.0, 0.0, 0.0, 0.0)",-4.18879020478639e-05,3.899065548955332e-05,1.647590813882647e-05,"(0.0, 0.0, 0.0, 0.0, 0.0, 0.0, 0.0, 0.0, 0.0)",-0.703,0.599,-9.563,"(0.0, 0.0, 0.0, 0.0, 0.0, 0.0, 0.0, 0.0, 0.0)",0,0,0,,3.706e-05,-7.530000000000001e-06,-3.167e-05,"(0.0, 0.0, 0.0, 0.0, 0.0, 0.0, 0.0, 0.0, 0.0)",
1711562708.746189,2036,1711562708,744163990,imu1_frame,0,0,0,,-0.04031521002462692,-0.00873239981610535,-0.7679207387510183,0.6392152751852949,"(0.0, 0.0, 0.0, 0.0, 0.0, 0.0, 0.0, 0.0, 0.0)",-2.853613327010729e-05,2.3771384412162766e-05,1.1414453308042915e-05,"(0.0, 0.0, 0.0, 0.0, 0.0, 0.0, 0.0, 0.0, 0.0)",-0.785,0.229,-9.678,"(0.0, 0.0, 0.0, 0.0, 0.0, 0.0, 0.0, 0.0, 0.0)",0,0,0,,3.671e-05,-8.35e-06,-3.0480000000000003e-05,"(0.0, 0.0, 0.0, 0.0, 0.0, 0.0, 0.0, 0.0, 0.0)",
1711562708.7731643,2037,1711562708,770402669,imu1_frame,0,0,0,,-0.0403507577708595,-0.008717473739046206,-0.767909610282867,0.6392266049173343,"(0.0, 0.0, 0.0, 0.0, 0.0, 0.0, 0.0, 0.0, 0.0)",9.168214560726212e-05,-4.22893277758226e-05,4.8991392103480834e-05,"(0.0, 0.0, 0.0, 0.0, 0.0, 0.0, 0.0, 0.0, 0.0)",-0.727,0.421,-9.553,"(0.0, 0.0, 0.0, 0.0, 0.0, 0.0, 0.0, 0.0, 0.0)",0,0,0,,3.695e-05,-7.18e-06,-3.035e-05,"(0.0, 0.0, 0.0, 0.0, 0.0, 0.0, 0.0, 0.0, 0.0)",
1711562708.7969015,2038,1711562708,794892072,imu1_frame,0,0,0,,-0.04036310557725848,-0.008716007927967565,-0.7679151264007279,0.6392192187027176,"(0.0, 0.0, 0.0, 0.0, 0.0, 0.0, 0.0, 0.0, 0.0)",-9.890780871051866e-05,-8.136724972797565e-05,-2.3212879051524585e-06,"(0.0, 0.0, 0.0, 0.0, 0.0, 0.0, 0.0, 0.0, 0.0)",-0.676,0.54,-9.529,"(0.0, 0.0, 0.0, 0.0, 0.0, 0.0, 0.0, 0.0, 0.0)",0,0,0,,3.663e-05,-6.7e-06,-3.05e-05,"(0.0, 0.0, 0.0, 0.0, 0.0, 0.0, 0.0, 0.0, 0.0)",
1711562708.821896,2039,1711562708,819759845,imu1_frame,0,0,0,,-0.0403552948314741,-0.008766277437631186,-0.7679143296817662,0.6392199815621811,"(0.0, 0.0, 0.0, 0.0, 0.0, 0.0, 0.0, 0.0, 0.0)",2.6162485487394997e-05,-5.092870757319454e-05,-2.4329889772800957e-05,"(0.0, 0.0, 0.0, 0.0, 0.0, 0.0, 0.0, 0.0, 0.0)",-0.764,0.194,-9.739,"(0.0, 0.0, 0.0, 0.0, 0.0, 0.0, 0.0, 0.0, 0.0)",0,0,0,,3.676e-05,-5.64e-06,-3.131e-05,"(0.0, 0.0, 0.0, 0.0, 0.0, 0.0, 0.0, 0.0, 0.0)",
1711562708.8475351,2040,1711562708,844598054,imu1_frame,0,0,0,,-0.04038430127331742,-0.008745059802160369,-0.7679144967326964,0.6392182396079545,"(0.0, 0.0, 0.0, 0.0, 0.0, 0.0, 0.0, 0.0, 0.0)",0.00012894492513734106,-0.00012079423753052755,1.8029251173101425e-05,"(0.0, 0.0, 0.0, 0.0, 0.0, 0.0, 0.0, 0.0, 0.0)",-0.693,0.405,-9.551,"(0.0, 0.0, 0.0, 0.0, 0.0, 0.0, 0.0, 0.0, 0.0)",0,0,0,,3.7080000000000004e-05,-6.2300000000000005e-06,-3.062e-05,"(0.0, 0.0, 0.0, 0.0, 0.0, 0.0, 0.0, 0.0, 0.0)",
1711562708.8719795,2041,1711562708,870169639,imu1_frame,0,0,0,,-0.04038980324513831,-0.008738710951514739,-0.7679089947608756,0.6392245884586001,"(0.0, 0.0, 0.0, 0.0, 0.0, 0.0, 0.0, 0.0, 0.0)",-9.365436766201572e-05,-3.303908274025266e-05,1.9600047499896322e-05,"(0.0, 0.0, 0.0, 0.0, 0.0, 0.0, 0.0, 0.0, 0.0)",-0.672,0.635,-9.605,"(0.0, 0.0, 0.0, 0.0, 0.0, 0.0, 0.0, 0.0, 0.0)",0,0,0,,3.698e-05,-5.99e-06,-3.129e-05,"(0.0, 0.0, 0.0, 0.0, 0.0, 0.0, 0.0, 0.0, 0.0)",
1711562708.8982956,2042,1711562708,894965648,imu1_frame,0,0,0,,-0.04036964364089657,-0.008790446228549947,-0.7679026802003385,0.639232738264043,"(0.0, 0.0, 0.0, 0.0, 0.0, 0.0, 0.0, 0.0, 0.0)",6.192428186075881e-05,-0.00011201523139299608,7.504915783575618e-07,"(0.0, 0.0, 0.0, 0.0, 0.0, 0.0, 0.0, 0.0, 0.0)",-0.759,0.154,-9.711,"(0.0, 0.0, 0.0, 0.0, 0.0, 0.0, 0.0, 0.0, 0.0)",0,0,0,,3.6830000000000005e-05,-7.77e-06,-2.994e-05,"(0.0, 0.0, 0.0, 0.0, 0.0, 0.0, 0.0, 0.0, 0.0)",
1711562708.9239686,2043,1711562708,921900987,imu1_frame,0,0,0,,-0.04037083809160831,-0.008734236830416933,-0.7679091953717836,0.6392256066540445,"(0.0, 0.0, 0.0, 0.0, 0.0, 0.0, 0.0, 0.0, 0.0)",7.468263869283736e-05,2.4207716725161348e-05,1.7819811662862104e-05,"(0.0, 0.0, 0.0, 0.0, 0.0, 0.0, 0.0, 0.0, 0.0)",-0.686,0.513,-9.642,"(0.0, 0.0, 0.0, 0.0, 0.0, 0.0, 0.0, 0.0, 0.0)",0,0,0,,3.704e-05,-8.599999999999999e-06,-3.086e-05,"(0.0, 0.0, 0.0, 0.0, 0.0, 0.0, 0.0, 0.0, 0.0)",
1711562708.9483118,2044,1711562708,946501016,imu1_frame,0,0,0,,-0.04035514502292126,-0.008698835651205754,-0.7679043220732801,0.639232934594009,"(0.0, 0.0, 0.0, 0.0, 0.0, 0.0, 0.0, 0.0, 0.0)",-0.00017823302321366095,0.00017537068324039023,1.7191493132144147e-05,"(0.0, 0.0, 0.0, 0.0, 0.0, 0.0, 0.0, 0.0, 0.0)",-0.666,0.545,-9.7,"(0.0, 0.0, 0.0, 0.0, 0.0, 0.0, 0.0, 0.0, 0.0)",0,0,0,,3.671e-05,-8.47e-06,-3.1009999999999996e-05,"(0.0, 0.0, 0.0, 0.0, 0.0, 0.0, 0.0, 0.0, 0.0)",
1711562708.9757738,2045,1711562708,970526218,imu1_frame,0,0,0,,-0.04034063999563485,-0.00874351729563711,-0.7679036650652636,0.6392340297961138,"(0.0, 0.0, 0.0, 0.0, 0.0, 0.0, 0.0, 0.0, 0.0)",8.824384698083329e-05,-0.0001088038255693265,-1.3229595730117018e-05,"(0.0, 0.0, 0.0, 0.0, 0.0, 0.0, 0.0, 0.0, 0.0)",-0.69,0.137,-9.664,"(0.0, 0.0, 0.0, 0.0, 0.0, 0.0, 0.0, 0.0, 0.0)",0,0,0,,3.663e-05,-6.7e-06,-3.05e-05,"(0.0, 0.0, 0.0, 0.0, 0.0, 0.0, 0.0, 0.0, 0.0)",
1711562708.999476,2046,1711562708,997268915,imu1_frame,0,0,0,,-0.04038749691832619,-0.00871448545943344,-0.7679038454546465,0.6392312507784768,"(0.0, 0.0, 0.0, 0.0, 0.0, 0.0, 0.0, 0.0, 0.0)",0.00012381365713647774,-0.00013025392207633682,-5.218534463463045e-06,"(0.0, 0.0, 0.0, 0.0, 0.0, 0.0, 0.0, 0.0, 0.0)",-0.665,0.549,-9.598,"(0.0, 0.0, 0.0, 0.0, 0.0, 0.0, 0.0, 0.0, 0.0)",0,0,0,,3.721e-05,-5.41e-06,-3.155e-05,"(0.0, 0.0, 0.0, 0.0, 0.0, 0.0, 0.0, 0.0, 0.0)",
1711562709.0254924,2047,1711562709,21352767,imu1_frame,0,0,0,,-0.04040199870114359,-0.008737949952187884,-0.7679033542410643,0.6392306041460375,"(0.0, 0.0, 0.0, 0.0, 0.0, 0.0, 0.0, 0.0, 0.0)",-0.0001924050967398549,2.769837522915001e-05,-1.8675022996339327e-06,"(0.0, 0.0, 0.0, 0.0, 0.0, 0.0, 0.0, 0.0, 0.0)",-0.672,0.518,-9.687,"(0.0, 0.0, 0.0, 0.0, 0.0, 0.0, 0.0, 0.0, 0.0)",0,0,0,,3.695e-05,-7.41e-06,-3.141e-05,"(0.0, 0.0, 0.0, 0.0, 0.0, 0.0, 0.0, 0.0, 0.0)",
1711562709.0487773,2048,1711562709,46814680,imu1_frame,0,0,0,,-0.040390765644774125,-0.00875170486898214,-0.7678976232433562,0.639238010391841,"(0.0, 0.0, 0.0, 0.0, 0.0, 0.0, 0.0, 0.0, 0.0)",7.904596182282318e-05,-0.0001352106571520007,-1.6336281798666925e-05,"(0.0, 0.0, 0.0, 0.0, 0.0, 0.0, 0.0, 0.0, 0.0)",-0.687,0.144,-9.62,"(0.0, 0.0, 0.0, 0.0, 0.0, 0.0, 0.0, 0.0, 0.0)",0,0,0,,3.651e-05,-6.93e-06,-3.01e-05,"(0.0, 0.0, 0.0, 0.0, 0.0, 0.0, 0.0, 0.0, 0.0)",
1711562709.0729172,2049,1711562709,70631504,imu1_frame,0,0,0,,-0.040399768635508655,-0.008713371992913896,-0.7679037832509393,0.6392305652200972,"(0.0, 0.0, 0.0, 0.0, 0.0, 0.0, 0.0, 0.0, 0.0)",5.658357434965616e-05,-1.408480706359424e-05,-2.2619467105846513e-05,"(0.0, 0.0, 0.0, 0.0, 0.0, 0.0, 0.0, 0.0, 0.0)",-0.641,0.582,-9.563,"(0.0, 0.0, 0.0, 0.0, 0.0, 0.0, 0.0, 0.0, 0.0)",0,0,0,,3.704e-05,-8.24e-06,-3.1929999999999994e-05,"(0.0, 0.0, 0.0, 0.0, 0.0, 0.0, 0.0, 0.0, 0.0)",
1711562709.097616,2050,1711562709,95313549,imu1_frame,0,0,0,,-0.04036287737887233,-0.008717064628613493,-0.7678983914175569,0.6392393224546558,"(0.0, 0.0, 0.0, 0.0, 0.0, 0.0, 0.0, 0.0, 0.0)",-0.0001082802267937282,8.511970761976345e-05,1.6563174601426186e-05,"(0.0, 0.0, 0.0, 0.0, 0.0, 0.0, 0.0, 0.0, 0.0)",-0.758,0.34,-9.713,"(0.0, 0.0, 0.0, 0.0, 0.0, 0.0, 0.0, 0.0, 0.0)",0,0,0,,3.705e-05,-7.77e-06,-3.02e-05,"(0.0, 0.0, 0.0, 0.0, 0.0, 0.0, 0.0, 0.0, 0.0)",
1711562709.1220684,2051,1711562709,120066642,imu1_frame,0,0,0,,-0.040355069109723044,-0.008699187815949905,-0.7678987436843425,0.639239635799049,"(0.0, 0.0, 0.0, 0.0, 0.0, 0.0, 0.0, 0.0, 0.0)",0.00011623892818282236,6.967354373961363e-05,2.6040312439755398e-05,"(0.0, 0.0, 0.0, 0.0, 0.0, 0.0, 0.0, 0.0, 0.0)",-0.697,0.177,-9.53,"(0.0, 0.0, 0.0, 0.0, 0.0, 0.0, 0.0, 0.0, 0.0)",0,0,0,,3.6859999999999996e-05,-6.35e-06,-3.063e-05,"(0.0, 0.0, 0.0, 0.0, 0.0, 0.0, 0.0, 0.0, 0.0)",
1711562709.1477525,2052,1711562709,144854784,imu1_frame,0,0,0,,-0.0403561878172844,-0.008643330602769304,-0.7678996733005973,0.639239206155085,"(0.0, 0.0, 0.0, 0.0, 0.0, 0.0, 0.0, 0.0, 0.0)",1.0035643198967394e-05,0.00011952014717657169,-1.541125729510993e-05,"(0.0, 0.0, 0.0, 0.0, 0.0, 0.0, 0.0, 0.0, 0.0)",-0.69,0.676,-9.536,"(0.0, 0.0, 0.0, 0.0, 0.0, 0.0, 0.0, 0.0, 0.0)",0,0,0,,3.7080000000000004e-05,-6.469999999999999e-06,-3.222e-05,"(0.0, 0.0, 0.0, 0.0, 0.0, 0.0, 0.0, 0.0, 0.0)",
1711562709.1747744,2053,1711562709,171080589,imu1_frame,0,0,0,,-0.04034279734096871,-0.008700301179175838,-0.7678988058140558,0.6392403206083328,"(0.0, 0.0, 0.0, 0.0, 0.0, 0.0, 0.0, 0.0, 0.0)",-0.00011215485773315562,4.5553093477052e-06,-1.0297442586766545e-05,"(0.0, 0.0, 0.0, 0.0, 0.0, 0.0, 0.0, 0.0, 0.0)",-0.768,0.295,-9.712,"(0.0, 0.0, 0.0, 0.0, 0.0, 0.0, 0.0, 0.0, 0.0)",0,0,0,,3.682e-05,-8.47e-06,-3.154e-05,"(0.0, 0.0, 0.0, 0.0, 0.0, 0.0, 0.0, 0.0, 0.0)",
1711562709.2015798,2054,1711562709,197661638,imu1_frame,0,0,0,,-0.04034607025669744,-0.008669374075191348,-0.7678937305536325,0.6392466309214396,"(0.0, 0.0, 0.0, 0.0, 0.0, 0.0, 0.0, 0.0, 0.0)",5.68802803224952e-05,0.00011313224211427242,1.6947147036864938e-05,"(0.0, 0.0, 0.0, 0.0, 0.0, 0.0, 0.0, 0.0, 0.0)",-0.71,0.273,-9.508,"(0.0, 0.0, 0.0, 0.0, 0.0, 0.0, 0.0, 0.0, 0.0)",0,0,0,,3.685e-05,-6.82e-06,-3.209e-05,"(0.0, 0.0, 0.0, 0.0, 0.0, 0.0, 0.0, 0.0, 0.0)",
1711562709.226424,2055,1711562709,223158121,imu1_frame,0,0,0,,-0.040344955436500435,-0.008657085055560346,-0.7678939438792494,0.6392466115692282,"(0.0, 0.0, 0.0, 0.0, 0.0, 0.0, 0.0, 0.0, 0.0)",-2.10835773640915e-05,4.946263100151931e-05,2.0594885173533086e-06,"(0.0, 0.0, 0.0, 0.0, 0.0, 0.0, 0.0, 0.0, 0.0)",-0.683,0.595,-9.58,"(0.0, 0.0, 0.0, 0.0, 0.0, 0.0, 0.0, 0.0, 0.0)",0,0,0,,3.75e-05,-7.42e-06,-3.111e-05,"(0.0, 0.0, 0.0, 0.0, 0.0, 0.0, 0.0, 0.0, 0.0)",
1711562709.2495246,2056,1711562709,247634649,imu1_frame,0,0,0,,-0.040363839942507994,-0.008730058103087808,-0.7678870200715097,0.6392527441601711,"(0.0, 0.0, 0.0, 0.0, 0.0, 0.0, 0.0, 0.0, 0.0)",7.883652231258387e-05,-9.944886077863689e-05,-5.829399701661061e-06,"(0.0, 0.0, 0.0, 0.0, 0.0, 0.0, 0.0, 0.0, 0.0)",-0.739,0.234,-9.763,"(0.0, 0.0, 0.0, 0.0, 0.0, 0.0, 0.0, 0.0, 0.0)",0,0,0,,3.695e-05,-7.18e-06,-3.181e-05,"(0.0, 0.0, 0.0, 0.0, 0.0, 0.0, 0.0, 0.0, 0.0)",
1711562709.2750587,2057,1711562709,271658658,imu1_frame,0,0,0,,-0.04035826638280808,-0.00866861301224348,-0.7678880899176972,0.6392526471165909,"(0.0, 0.0, 0.0, 0.0, 0.0, 0.0, 0.0, 0.0, 0.0)",9.065240134858548e-05,5.431464632206354e-05,2.2689280275926283e-07,"(0.0, 0.0, 0.0, 0.0, 0.0, 0.0, 0.0, 0.0, 0.0)",-0.694,0.392,-9.558,"(0.0, 0.0, 0.0, 0.0, 0.0, 0.0, 0.0, 0.0, 0.0)",0,0,0,,3.666e-05,-5.16e-06,-3.118e-05,"(0.0, 0.0, 0.0, 0.0, 0.0, 0.0, 0.0, 0.0, 0.0)",
1711562709.300312,2058,1711562709,296756982,imu1_frame,0,0,0,,-0.04036942344010488,-0.008655210835467945,-0.7678882410965798,0.6392519426345985,"(0.0, 0.0, 0.0, 0.0, 0.0, 0.0, 0.0, 0.0, 0.0)",-0.00015632914110113208,7.57472895365539e-06,2.2689280275926284e-06,"(0.0, 0.0, 0.0, 0.0, 0.0, 0.0, 0.0, 0.0, 0.0)",-0.702,0.63,-9.556,"(0.0, 0.0, 0.0, 0.0, 0.0, 0.0, 0.0, 0.0, 0.0)",0,0,0,,3.7069999999999996e-05,-6.5900000000000004e-06,-3.155e-05,"(0.0, 0.0, 0.0, 0.0, 0.0, 0.0, 0.0, 0.0, 0.0)",
1711562709.3261437,2059,1711562709,321913003,imu1_frame,0,0,0,,-0.04038280494890484,-0.008734532886314426,-0.7678868195643356,0.6392517261134978,"(0.0, 0.0, 0.0, 0.0, 0.0, 0.0, 0.0, 0.0, 0.0)",2.103121748653167e-05,-8.94481241647094e-05,-2.2532200643246796e-05,"(0.0, 0.0, 0.0, 0.0, 0.0, 0.0, 0.0, 0.0, 0.0)",-0.714,0.196,-9.717,"(0.0, 0.0, 0.0, 0.0, 0.0, 0.0, 0.0, 0.0, 0.0)",0,0,0,,3.697e-05,-6.35e-06,-3.302e-05,"(0.0, 0.0, 0.0, 0.0, 0.0, 0.0, 0.0, 0.0, 0.0)",
1711562709.3503544,2060,1711562709,348375558,imu1_frame,0,0,0,,-0.040405043028231655,-0.008708081175279554,-0.767881545448608,0.6392570171531862,"(0.0, 0.0, 0.0, 0.0, 0.0, 0.0, 0.0, 0.0, 0.0)",0.00010524335389525806,-2.4085543677521744e-06,2.0577431881013143e-05,"(0.0, 0.0, 0.0, 0.0, 0.0, 0.0, 0.0, 0.0, 0.0)",-0.682,0.399,-9.61,"(0.0, 0.0, 0.0, 0.0, 0.0, 0.0, 0.0, 0.0, 0.0)",0,0,0,,3.675e-05,-6.2300000000000005e-06,-3.21e-05,"(0.0, 0.0, 0.0, 0.0, 0.0, 0.0, 0.0, 0.0, 0.0)",
1711562709.3760808,2061,1711562709,372158527,imu1_frame,0,0,0,,-0.04040496703434913,-0.008708433775465598,-0.7678759668495114,0.6392637181594616,"(0.0, 0.0, 0.0, 0.0, 0.0, 0.0, 0.0, 0.0, 0.0)",-0.00012576842589871138,1.1972958668681101e-05,1.2618730491919003e-05,"(0.0, 0.0, 0.0, 0.0, 0.0, 0.0, 0.0, 0.0, 0.0)",-0.696,0.555,-9.573,"(0.0, 0.0, 0.0, 0.0, 0.0, 0.0, 0.0, 0.0, 0.0)",0,0,0,,3.681e-05,-8.83e-06,-3.113e-05,"(0.0, 0.0, 0.0, 0.0, 0.0, 0.0, 0.0, 0.0, 0.0)",
1711562709.3996656,2062,1711562709,397475242,imu1_frame,0,0,0,,-0.04037588317567861,-0.008730001996812753,-0.7678702220816874,0.6392721620430062,"(0.0, 0.0, 0.0, 0.0, 0.0, 0.0, 0.0, 0.0, 0.0)",8.241444727917224e-05,-0.0001319468914507713,2.6354471705114377e-06,"(0.0, 0.0, 0.0, 0.0, 0.0, 0.0, 0.0, 0.0, 0.0)",-0.741,0.213,-9.687,"(0.0, 0.0, 0.0, 0.0, 0.0, 0.0, 0.0, 0.0, 0.0)",0,0,0,,3.672e-05,-7.530000000000001e-06,-2.995e-05,"(0.0, 0.0, 0.0, 0.0, 0.0, 0.0, 0.0, 0.0, 0.0)",
1711562709.427269,2063,1711562709,422577857,imu1_frame,0,0,0,,-0.0404104697226631,-0.008702085441405683,-0.7678704641611972,0.6392700664935216,"(0.0, 0.0, 0.0, 0.0, 0.0, 0.0, 0.0, 0.0, 0.0)",0.00010079276430267254,-2.590068609959585e-05,-1.2915436464758038e-06,"(0.0, 0.0, 0.0, 0.0, 0.0, 0.0, 0.0, 0.0, 0.0)",-0.707,0.51,-9.62,"(0.0, 0.0, 0.0, 0.0, 0.0, 0.0, 0.0, 0.0, 0.0)",0,0,0,,3.719e-05,-6.35e-06,-3.088e-05,"(0.0, 0.0, 0.0, 0.0, 0.0, 0.0, 0.0, 0.0, 0.0)",
1711562709.4518833,2064,1711562709,449843406,imu1_frame,0,0,0,,-0.04041166015826323,-0.008714021827089644,-0.7678758286316334,0.6392633849596991,"(0.0, 0.0, 0.0, 0.0, 0.0, 0.0, 0.0, 0.0, 0.0)",-0.00016582373223198124,7.922049474802261e-05,-1.0716321607245183e-05,"(0.0, 0.0, 0.0, 0.0, 0.0, 0.0, 0.0, 0.0, 0.0)",-0.695,0.59,-9.651,"(0.0, 0.0, 0.0, 0.0, 0.0, 0.0, 0.0, 0.0, 0.0)",0,0,0,,3.712e-05,-4.4600000000000005e-06,-3.104e-05,"(0.0, 0.0, 0.0, 0.0, 0.0, 0.0, 0.0, 0.0, 0.0)",
1711562709.475636,2065,1711562709,473652124,imu1_frame,0,0,0,,-0.040377073854219236,-0.008741938676836302,-0.7678755861414426,0.6392654805501994,"(0.0, 0.0, 0.0, 0.0, 0.0, 0.0, 0.0, 0.0, 0.0)",7.396705369951968e-05,-0.0001438849435344125,-1.6249015336067207e-05,"(0.0, 0.0, 0.0, 0.0, 0.0, 0.0, 0.0, 0.0, 0.0)",-0.733,0.147,-9.706,"(0.0, 0.0, 0.0, 0.0, 0.0, 0.0, 0.0, 0.0, 0.0)",0,0,0,,3.705e-05,-7.77e-06,-3.14e-05,"(0.0, 0.0, 0.0, 0.0, 0.0, 0.0, 0.0, 0.0, 0.0)",
1711562709.5004594,2066,1711562709,496909618,imu1_frame,0,0,0,,-0.040411584112538486,-0.008714374485020819,-0.7678702499769674,0.6392700859160858,"(0.0, 0.0, 0.0, 0.0, 0.0, 0.0, 0.0, 0.0, 0.0)",0.00012655382406210884,-9.922196797587763e-05,1.43116998663535e-05,"(0.0, 0.0, 0.0, 0.0, 0.0, 0.0, 0.0, 0.0, 0.0)",-0.652,0.502,-9.62,"(0.0, 0.0, 0.0, 0.0, 0.0, 0.0, 0.0, 0.0, 0.0)",0,0,0,,3.684e-05,-7.059999999999999e-06,-3.035e-05,"(0.0, 0.0, 0.0, 0.0, 0.0, 0.0, 0.0, 0.0, 0.0)",
1711562709.5259404,2067,1711562709,522326946,imu1_frame,0,0,0,,-0.04039931234903905,-0.008715487307908032,-0.7678703121642012,0.6392707716919042,"(0.0, 0.0, 0.0, 0.0, 0.0, 0.0, 0.0, 0.0, 0.0)",-0.00013824753005047083,5.74038790980935e-05,1.5620696805349246e-05,"(0.0, 0.0, 0.0, 0.0, 0.0, 0.0, 0.0, 0.0, 0.0)",-0.672,0.508,-9.638,"(0.0, 0.0, 0.0, 0.0, 0.0, 0.0, 0.0, 0.0, 0.0)",0,0,0,,3.696e-05,-6.7e-06,-3.1280000000000005e-05,"(0.0, 0.0, 0.0, 0.0, 0.0, 0.0, 0.0, 0.0, 0.0)",
1711562709.551113,2068,1711562709,547580718,imu1_frame,0,0,0,,-0.040366961303002095,-0.008699835803048991,-0.7678707887432259,0.6392724560678474,"(0.0, 0.0, 0.0, 0.0, 0.0, 0.0, 0.0, 0.0, 0.0)",7.998843961890013e-05,1.2269664641520135e-05,-1.7697638615222502e-05,"(0.0, 0.0, 0.0, 0.0, 0.0, 0.0, 0.0, 0.0, 0.0)",-0.704,0.209,-9.614,"(0.0, 0.0, 0.0, 0.0, 0.0, 0.0, 0.0, 0.0, 0.0)",0,0,0,,3.695e-05,-7.41e-06,-3.0209999999999997e-05,"(0.0, 0.0, 0.0, 0.0, 0.0, 0.0, 0.0, 0.0, 0.0)",
1711562709.5777524,2069,1711562709,573135137,imu1_frame,0,0,0,,-0.04037596551166173,-0.008661503472167568,-0.7678769462174676,0.6392650117395282,"(0.0, 0.0, 0.0, 0.0, 0.0, 0.0, 0.0, 0.0, 0.0)",8.30078592248503e-05,4.6809730538487924e-05,1.9268434942017395e-05,"(0.0, 0.0, 0.0, 0.0, 0.0, 0.0, 0.0, 0.0, 0.0)",-0.676,0.543,-9.587,"(0.0, 0.0, 0.0, 0.0, 0.0, 0.0, 0.0, 0.0, 0.0)",0,0,0,,3.677e-05,-5.4e-06,-3.104e-05,"(0.0, 0.0, 0.0, 0.0, 0.0, 0.0, 0.0, 0.0, 0.0)",
1711562709.6024342,2070,1711562709,600426912,imu1_frame,0,0,0,,-0.040391504877861265,-0.008697610152934531,-0.7678706644464479,0.6392710853729422,"(0.0, 0.0, 0.0, 0.0, 0.0, 0.0, 0.0, 0.0, 0.0)",-0.00019256217637253438,-3.7402405870238485e-05,1.2304571226560022e-05,"(0.0, 0.0, 0.0, 0.0, 0.0, 0.0, 0.0, 0.0, 0.0)",-0.635,0.492,-9.711,"(0.0, 0.0, 0.0, 0.0, 0.0, 0.0, 0.0, 0.0, 0.0)",0,0,0,,3.75e-05,-7.42e-06,-3.0709999999999996e-05,"(0.0, 0.0, 0.0, 0.0, 0.0, 0.0, 0.0, 0.0, 0.0)",
1711562709.6263418,2071,1711562709,623841524,imu1_frame,0,0,0,,-0.040359078050191725,-0.008682310840756907,-0.7678655617820432,0.6392794704403937,"(0.0, 0.0, 0.0, 0.0, 0.0, 0.0, 0.0, 0.0, 0.0)",6.181956210563915e-05,4.6914450293607575e-05,1.663298777150596e-05,"(0.0, 0.0, 0.0, 0.0, 0.0, 0.0, 0.0, 0.0, 0.0)",-0.676,0.171,-9.575,"(0.0, 0.0, 0.0, 0.0, 0.0, 0.0, 0.0, 0.0, 0.0)",0,0,0,,3.6830000000000005e-05,-7.530000000000001e-06,-3.0480000000000003e-05,"(0.0, 0.0, 0.0, 0.0, 0.0, 0.0, 0.0, 0.0, 0.0)",
1711562709.6497712,2072,1711562709,647555828,imu1_frame,0,0,0,,-0.040361313961989845,-0.00863874273892627,-0.7678662771779167,0.639279060217116,"(0.0, 0.0, 0.0, 0.0, 0.0, 0.0, 0.0, 0.0, 0.0)",5.7613318608332824e-05,6.960373056953387e-05,-4.0491638646268445e-06,"(0.0, 0.0, 0.0, 0.0, 0.0, 0.0, 0.0, 0.0, 0.0)",-0.654,0.636,-9.505,"(0.0, 0.0, 0.0, 0.0, 0.0, 0.0, 0.0, 0.0, 0.0)",0,0,0,,3.7080000000000004e-05,-6.2300000000000005e-06,-2.995e-05,"(0.0, 0.0, 0.0, 0.0, 0.0, 0.0, 0.0, 0.0, 0.0)",
1711562709.6752863,2073,1711562709,672658205,imu1_frame,0,0,0,,-0.04035349928285524,-0.008689011731559108,-0.7678654859853498,0.6392798226154491,"(0.0, 0.0, 0.0, 0.0, 0.0, 0.0, 0.0, 0.0, 0.0)",-0.00012692034320502764,9.313076888641741e-05,-2.0141099568014565e-05,"(0.0, 0.0, 0.0, 0.0, 0.0, 0.0, 0.0, 0.0, 0.0)",-0.722,0.339,-9.673,"(0.0, 0.0, 0.0, 0.0, 0.0, 0.0, 0.0, 0.0, 0.0)",0,0,0,,3.7159999999999997e-05,-7.77e-06,-3.113e-05,"(0.0, 0.0, 0.0, 0.0, 0.0, 0.0, 0.0, 0.0, 0.0)",
1711562709.6985624,2074,1711562709,696500062,imu1_frame,0,0,0,,-0.04033119154416792,-0.008647669077325245,-0.7678663259491397,0.6392807820367558,"(0.0, 0.0, 0.0, 0.0, 0.0, 0.0, 0.0, 0.0, 0.0)",0.00010030407211211411,0.00012411036310931676,1.4521139376592821e-05,"(0.0, 0.0, 0.0, 0.0, 0.0, 0.0, 0.0, 0.0, 0.0)",-0.701,0.274,-9.543,"(0.0, 0.0, 0.0, 0.0, 0.0, 0.0, 0.0, 0.0, 0.0)",0,0,0,,3.704e-05,-8.24e-06,-3.019e-05,"(0.0, 0.0, 0.0, 0.0, 0.0, 0.0, 0.0, 0.0, 0.0)",
1711562709.7248578,2075,1711562709,722482681,imu1_frame,0,0,0,,-0.040321155625397245,-0.008605213657145137,-0.7678671011867793,0.6392810568302174,"(0.0, 0.0, 0.0, 0.0, 0.0, 0.0, 0.0, 0.0, 0.0)",-3.286454981505322e-05,5.6025068989017976e-05,-1.1501719770642633e-05,"(0.0, 0.0, 0.0, 0.0, 0.0, 0.0, 0.0, 0.0, 0.0)",-0.68,0.611,-9.551,"(0.0, 0.0, 0.0, 0.0, 0.0, 0.0, 0.0, 0.0, 0.0)",0,0,0,,3.674e-05,-6.460000000000001e-06,-3.13e-05,"(0.0, 0.0, 0.0, 0.0, 0.0, 0.0, 0.0, 0.0, 0.0)",
1711562709.7483249,2076,1711562709,746463775,imu1_frame,0,0,0,,-0.04030768653328558,-0.008662535346246615,-0.767860658128597,0.63928887100123,"(0.0, 0.0, 0.0, 0.0, 0.0, 0.0, 0.0, 0.0, 0.0)",-5.611233545161769e-05,3.8711402809234226e-05,2.8797932657906436e-05,"(0.0, 0.0, 0.0, 0.0, 0.0, 0.0, 0.0, 0.0, 0.0)",-0.75,0.254,-9.69,"(0.0, 0.0, 0.0, 0.0, 0.0, 0.0, 0.0, 0.0, 0.0)",0,0,0,,3.666e-05,-5.16e-06,-3.0919999999999995e-05,"(0.0, 0.0, 0.0, 0.0, 0.0, 0.0, 0.0, 0.0, 0.0)",
1711562709.772865,2077,1711562709,770639896,imu1_frame,0,0,0,,-0.04033000190006486,-0.008635731947612791,-0.7678609600403162,0.6392874636080654,"(0.0, 0.0, 0.0, 0.0, 0.0, 0.0, 0.0, 0.0, 0.0)",8.833111344343302e-05,9.248499706317951e-05,7.57472895365539e-06,"(0.0, 0.0, 0.0, 0.0, 0.0, 0.0, 0.0, 0.0, 0.0)",-0.72,0.265,-9.54,"(0.0, 0.0, 0.0, 0.0, 0.0, 0.0, 0.0, 0.0, 0.0)",0,0,0,,3.6620000000000005e-05,-7.17e-06,-3.1559999999999996e-05,"(0.0, 0.0, 0.0, 0.0, 0.0, 0.0, 0.0, 0.0, 0.0)",
1711562709.798927,2078,1711562709,795178174,imu1_frame,0,0,0,,-0.04033335237789966,-0.008604452910611765,-0.7678614603094358,0.6392870731115481,"(0.0, 0.0, 0.0, 0.0, 0.0, 0.0, 0.0, 0.0, 0.0)",-5.953318078552658e-05,0.00012004374595217,-1.9600047499896322e-05,"(0.0, 0.0, 0.0, 0.0, 0.0, 0.0, 0.0, 0.0, 0.0)",-0.69,0.648,-9.584,"(0.0, 0.0, 0.0, 0.0, 0.0, 0.0, 0.0, 0.0, 0.0)",0,0,0,,3.649e-05,-7.879999999999999e-06,-2.9959999999999998e-05,"(0.0, 0.0, 0.0, 0.0, 0.0, 0.0, 0.0, 0.0, 0.0)",
1711562709.8237567,2079,1711562709,821501255,imu1_frame,0,0,0,,-0.04031430391131526,-0.0086684753864231,-0.7678549416006812,0.6392952393800814,"(0.0, 0.0, 0.0, 0.0, 0.0, 0.0, 0.0, 0.0, 0.0)",4.399975044277704e-05,-4.8345620280242926e-05,-9.599310885968813e-07,"(0.0, 0.0, 0.0, 0.0, 0.0, 0.0, 0.0, 0.0, 0.0)",-0.745,0.2,-9.705,"(0.0, 0.0, 0.0, 0.0, 0.0, 0.0, 0.0, 0.0, 0.0)",0,0,0,,3.684e-05,-7.2900000000000005e-06,-3.1280000000000005e-05,"(0.0, 0.0, 0.0, 0.0, 0.0, 0.0, 0.0, 0.0, 0.0)",
1711562709.8479161,2080,1711562709,845851659,imu1_frame,0,0,0,,-0.040327623245090455,-0.008611857616741601,-0.7678502274047956,0.6393008266741056,"(0.0, 0.0, 0.0, 0.0, 0.0, 0.0, 0.0, 0.0, 0.0)",8.854055295367235e-05,5.567600313861911e-05,1.4398966328953218e-05,"(0.0, 0.0, 0.0, 0.0, 0.0, 0.0, 0.0, 0.0, 0.0)",-0.704,0.499,-9.608,"(0.0, 0.0, 0.0, 0.0, 0.0, 0.0, 0.0, 0.0, 0.0)",0,0,0,,3.675e-05,-6.11e-06,-3.05e-05,"(0.0, 0.0, 0.0, 0.0, 0.0, 0.0, 0.0, 0.0, 0.0)",
1711562709.872883,2081,1711562709,870769739,imu1_frame,0,0,0,,-0.04033543012293513,-0.008629735083684155,-0.767849877590141,0.6393005132439586,"(0.0, 0.0, 0.0, 0.0, 0.0, 0.0, 0.0, 0.0, 0.0)",-0.00014311699866353502,1.4800392056911915e-05,-4.485496177625427e-06,"(0.0, 0.0, 0.0, 0.0, 0.0, 0.0, 0.0, 0.0, 0.0)",-0.654,0.54,-9.633,"(0.0, 0.0, 0.0, 0.0, 0.0, 0.0, 0.0, 0.0, 0.0)",0,0,0,,3.689e-05,-4.929999999999999e-06,-3.171e-05,"(0.0, 0.0, 0.0, 0.0, 0.0, 0.0, 0.0, 0.0, 0.0)",
1711562709.8978455,2082,1711562709,895438909,imu1_frame,0,0,0,,-0.04031318984164511,-0.008656186296853384,-0.7678551548202374,0.6392952200506233,"(0.0, 0.0, 0.0, 0.0, 0.0, 0.0, 0.0, 0.0, 0.0)",3.0892327760299636e-05,-0.00011510446416902604,-1.8867009214058702e-05,"(0.0, 0.0, 0.0, 0.0, 0.0, 0.0, 0.0, 0.0, 0.0)",-0.703,0.138,-9.713,"(0.0, 0.0, 0.0, 0.0, 0.0, 0.0, 0.0, 0.0, 0.0)",0,0,0,,3.698e-05,-5.52e-06,-3.17e-05,"(0.0, 0.0, 0.0, 0.0, 0.0, 0.0, 0.0, 0.0, 0.0)",
1711562709.9235702,2083,1711562709,921085596,imu1_frame,0,0,0,,-0.04034212303410194,-0.008635323437676257,-0.7678497401860372,0.6393001805055768,"(0.0, 0.0, 0.0, 0.0, 0.0, 0.0, 0.0, 0.0, 0.0)",0.00012894492513734106,1.7802358370342164e-05,1.2514010736799342e-05,"(0.0, 0.0, 0.0, 0.0, 0.0, 0.0, 0.0, 0.0, 0.0)",-0.687,0.431,-9.594,"(0.0, 0.0, 0.0, 0.0, 0.0, 0.0, 0.0, 0.0, 0.0)",0,0,0,,3.694e-05,-7.77e-06,-3.194e-05,"(0.0, 0.0, 0.0, 0.0, 0.0, 0.0, 0.0, 0.0, 0.0)",
1711562709.9480255,2084,1711562709,945876598,imu1_frame,0,0,0,,-0.04035550884721836,-0.008646500143687189,-0.7678494652024047,0.639299514882757,"(0.0, 0.0, 0.0, 0.0, 0.0, 0.0, 0.0, 0.0, 0.0)",-0.00010220648099678794,3.74896723328382e-05,5.340707511102648e-06,"(0.0, 0.0, 0.0, 0.0, 0.0, 0.0, 0.0, 0.0, 0.0)",-0.662,0.581,-9.673,"(0.0, 0.0, 0.0, 0.0, 0.0, 0.0, 0.0, 0.0, 0.0)",0,0,0,,3.661e-05,-7.530000000000001e-06,-3.076e-05,"(0.0, 0.0, 0.0, 0.0, 0.0, 0.0, 0.0, 0.0, 0.0)",
1711562709.9750674,2085,1711562709,971808671,imu1_frame,0,0,0,,-0.040352157829478916,-0.008677779088881019,-0.7678489630642841,0.6392999057013016,"(0.0, 0.0, 0.0, 0.0, 0.0, 0.0, 0.0, 0.0, 0.0)",0.00010751228192285069,-4.2359140945902375e-05,-2.9321531433504735e-05,"(0.0, 0.0, 0.0, 0.0, 0.0, 0.0, 0.0, 0.0, 0.0)",-0.721,0.201,-9.704,"(0.0, 0.0, 0.0, 0.0, 0.0, 0.0, 0.0, 0.0, 0.0)",0,0,0,,3.682e-05,-8.47e-06,-3.047e-05,"(0.0, 0.0, 0.0, 0.0, 0.0, 0.0, 0.0, 0.0, 0.0)",
1711562709.9988708,2086,1711562709,996566534,imu1_frame,0,0,0,,-0.04034762667862076,-0.008628974784078128,-0.7678442365415186,0.6393065291591747,"(0.0, 0.0, 0.0, 0.0, 0.0, 0.0, 0.0, 0.0, 0.0)",3.9898226700590364e-05,2.670353755551324e-06,8.063421144213802e-06,"(0.0, 0.0, 0.0, 0.0, 0.0, 0.0, 0.0, 0.0, 0.0)",-0.67,0.535,-9.539,"(0.0, 0.0, 0.0, 0.0, 0.0, 0.0, 0.0, 0.0, 0.0)",0,0,0,,3.65e-05,-7.64e-06,-3.076e-05,"(0.0, 0.0, 0.0, 0.0, 0.0, 0.0, 0.0, 0.0, 0.0)",
1711562710.0224252,2087,1711562710,20465850,imu1_frame,0,0,0,,-0.04033758252413476,-0.00865466530556483,-0.7678438728151401,0.63930725256703,"(0.0, 0.0, 0.0, 0.0, 0.0, 0.0, 0.0, 0.0, 0.0)",-0.00017941984710501707,3.331833542057175e-05,1.1152653920243767e-05,"(0.0, 0.0, 0.0, 0.0, 0.0, 0.0, 0.0, 0.0, 0.0)",-0.689,0.484,-9.716,"(0.0, 0.0, 0.0, 0.0, 0.0, 0.0, 0.0, 0.0, 0.0)",0,0,0,,3.697e-05,-6.469999999999999e-06,-3.009e-05,"(0.0, 0.0, 0.0, 0.0, 0.0, 0.0, 0.0, 0.0, 0.0)",
1711562710.0487008,2088,1711562710,46298027,imu1_frame,0,0,0,,-0.040331927928141297,-0.008661717969893968,-0.7678382182191468,0.6393143052313591,"(0.0, 0.0, 0.0, 0.0, 0.0, 0.0, 0.0, 0.0, 0.0)",8.658578419143869e-05,-3.8676496224194345e-05,-7.120943348136864e-06,"(0.0, 0.0, 0.0, 0.0, 0.0, 0.0, 0.0, 0.0, 0.0)",-0.68,0.146,-9.652,"(0.0, 0.0, 0.0, 0.0, 0.0, 0.0, 0.0, 0.0, 0.0)",0,0,0,,3.694e-05,-7.65e-06,-3.1140000000000003e-05,"(0.0, 0.0, 0.0, 0.0, 0.0, 0.0, 0.0, 0.0, 0.0)",
1711562710.0743103,2089,1711562710,72106599,imu1_frame,0,0,0,,-0.04037217037448837,-0.008626750202713257,-0.7678441123433749,0.6393051588872155,"(0.0, 0.0, 0.0, 0.0, 0.0, 0.0, 0.0, 0.0, 0.0)",8.925613794699e-05,3.9584067435231396e-05,-2.5830872929516076e-06,"(0.0, 0.0, 0.0, 0.0, 0.0, 0.0, 0.0, 0.0, 0.0)",-0.652,0.532,-9.549,"(0.0, 0.0, 0.0, 0.0, 0.0, 0.0, 0.0, 0.0, 0.0)",0,0,0,,3.717e-05,-7.18e-06,-3.073e-05,"(0.0, 0.0, 0.0, 0.0, 0.0, 0.0, 0.0, 0.0, 0.0)",
1711562710.0969977,2090,1711562710,96434116,imu1_frame,0,0,0,,-0.04034755137507391,-0.008629326883215011,-0.7678386575103496,0.6393132298398667,"(0.0, 0.0, 0.0, 0.0, 0.0, 0.0, 0.0, 0.0, 0.0)",-0.0001564513141487717,6.869615935849681e-05,1.630137521362704e-05,"(0.0, 0.0, 0.0, 0.0, 0.0, 0.0, 0.0, 0.0, 0.0)",-0.691,0.489,-9.676,"(0.0, 0.0, 0.0, 0.0, 0.0, 0.0, 0.0, 0.0, 0.0)",0,0,0,,3.696e-05,-6.9400000000000005e-06,-2.9409999999999998e-05,"(0.0, 0.0, 0.0, 0.0, 0.0, 0.0, 0.0, 0.0, 0.0)",
1711562710.1238472,2091,1711562710,120575904,imu1_frame,0,0,0,,-0.04035416882733956,-0.00863526751144653,-0.7678329410156092,0.6393195976228013,"(0.0, 0.0, 0.0, 0.0, 0.0, 0.0, 0.0, 0.0, 0.0)",5.300564938306779e-05,3.403392041388942e-06,2.0455258833373544e-05,"(0.0, 0.0, 0.0, 0.0, 0.0, 0.0, 0.0, 0.0, 0.0)",-0.715,0.196,-9.591,"(0.0, 0.0, 0.0, 0.0, 0.0, 0.0, 0.0, 0.0, 0.0)",0,0,0,,3.705e-05,-7.65e-06,-3.047e-05,"(0.0, 0.0, 0.0, 0.0, 0.0, 0.0, 0.0, 0.0, 0.0)",
1711562710.1480007,2092,1711562710,145397424,imu1_frame,0,0,0,,-0.040364213411266184,-0.00860957715575344,-0.7678333040820416,0.6393188739583276,"(0.0, 0.0, 0.0, 0.0, 0.0, 0.0, 0.0, 0.0, 0.0)",5.880014249968897e-05,2.23751210105673e-05,6.684611035138282e-06,"(0.0, 0.0, 0.0, 0.0, 0.0, 0.0, 0.0, 0.0, 0.0)",-0.663,0.551,-9.551,"(0.0, 0.0, 0.0, 0.0, 0.0, 0.0, 0.0, 0.0, 0.0)",0,0,0,,3.672e-05,-7.530000000000001e-06,-2.995e-05,"(0.0, 0.0, 0.0, 0.0, 0.0, 0.0, 0.0, 0.0, 0.0)",
1711562710.1732934,2093,1711562710,171231031,imu1_frame,0,0,0,,-0.040368516847197194,-0.008659438264139688,-0.7678212945793911,0.6393323521979274,"(0.0, 0.0, 0.0, 0.0, 0.0, 0.0, 0.0, 0.0, 0.0)",-8.892452538911109e-05,1.1763519158441782e-05,-5.410520681182421e-06,"(0.0, 0.0, 0.0, 0.0, 0.0, 0.0, 0.0, 0.0, 0.0)",-0.707,0.346,-9.739,"(0.0, 0.0, 0.0, 0.0, 0.0, 0.0, 0.0, 0.0, 0.0)",0,0,0,,3.675e-05,-6.35e-06,-3.023e-05,"(0.0, 0.0, 0.0, 0.0, 0.0, 0.0, 0.0, 0.0, 0.0)",
